ax,ay,az,gx,gy,gz,temperature,flame
-11808.0,1328.0,9764.0,-817.0,-827.0,703.0,206.0,1.0
-16012.0,2988.0,8260.0,-1404.0,-2779.0,924.0,195.0,1.0
-4856.0,3316.0,13988.0,-2132.0,-2336.0,536.0,220.0,1.0
-2732.0,1848.0,15020.0,-2488.0,-1868.0,91.0,208.0,1.0
264.0,476.0,15504.0,-1932.0,-1704.0,-135.0,206.0,1.0
1904.0,-1060.0,16700.0,-1511.0,-2299.0,-265.0,198.0,1.0
7224.0,-1364.0,15596.0,-1025.0,-1373.0,-522.0,206.0,1.0
6076.0,-2388.0,22624.0,-485.0,-459.0,-719.0,213.0,1.0
5740.0,-1952.0,22692.0,-34.0,748.0,-760.0,201.0,1.0
3316.0,-988.0,24328.0,242.0,2035.0,-716.0,190.0,1.0
856.0,-2028.0,27740.0,-163.0,2492.0,-492.0,207.0,1.0
-6708.0,-1412.0,13776.0,-506.0,1357.0,-4.0,213.0,1.0
-8732.0,216.0,9636.0,-671.0,-78.0,600.0,192.0,1.0
-11328.0,2116.0,6620.0,-984.0,-1603.0,834.0,185.0,1.0
-8692.0,2488.0,8400.0,-1400.0,-2817.0,917.0,187.0,1.0
-6292.0,2100.0,9192.0,-1919.0,-2337.0,619.0,204.0,1.0
-5292.0,3000.0,11268.0,-2283.0,-2119.0,401.0,234.0,1.0
4772.0,-788.0,6796.0,-2483.0,-1864.0,83.0,212.0,1.0
4980.0,-1108.0,6432.0,-2356.0,-1626.0,-32.0,202.0,1.0
4972.0,-964.0,6532.0,-1898.0,-1762.0,-103.0,216.0,1.0
4168.0,-1020.0,7684.0,-1612.0,-2197.0,-228.0,208.0,1.0
6664.0,-1628.0,16344.0,-1257.0,-1980.0,-403.0,199.0,1.0
7908.0,-1812.0,16248.0,-889.0,-823.0,-616.0,226.0,1.0
8968.0,-2268.0,18688.0,-448.0,-474.0,-708.0,212.0,1.0
6416.0,-1732.0,22048.0,-17.0,760.0,-742.0,202.0,1.0
3112.0,-928.0,24228.0,227.0,1924.0,-734.0,201.0,1.0
184.0,-1960.0,28700.0,-96.0,2605.0,-585.0,204.0,1.0
-7332.0,-1472.0,13180.0,-470.0,1777.0,-151.0,224.0,1.0
-11192.0,1792.0,8764.0,-649.0,-198.0,631.0,194.0,1.0
-15824.0,2928.0,8044.0,-1264.0,-2618.0,956.0,197.0,1.0
-4312.0,2844.0,14256.0,-2105.0,-2312.0,562.0,205.0,1.0
312.0,1812.0,14448.0,-2531.0,-1821.0,40.0,209.0,1.0
5740.0,-840.0,5928.0,-1949.0,-1768.0,-140.0,216.0,1.0
7220.0,-1516.0,16024.0,-1402.0,-2299.0,-317.0,195.0,1.0
8380.0,-2268.0,19232.0,-909.0,-856.0,-637.0,240.0,1.0
7304.0,-1860.0,24188.0,-214.0,61.0,-769.0,199.0,1.0
1316.0,-1964.0,27020.0,223.0,1632.0,-762.0,210.0,1.0
1988.0,-2500.0,26104.0,-211.0,2494.0,-551.0,196.0,1.0
-1068.0,-1172.0,17852.0,-539.0,1357.0,27.0,208.0,1.0
-17184.0,4352.0,9844.0,-1014.0,-1733.0,865.0,231.0,1.0
-9200.0,2476.0,8284.0,-1794.0,-2544.0,796.0,199.0,1.0
-4748.0,2708.0,14552.0,-2515.0,-2017.0,112.0,214.0,1.0
-276.0,300.0,16404.0,-1866.0,-1968.0,-125.0,228.0,1.0
6036.0,-1256.0,16244.0,-1290.0,-2075.0,-378.0,193.0,1.0
8196.0,-2296.0,18032.0,-662.0,-526.0,-691.0,223.0,1.0
4744.0,-1340.0,23484.0,-42.0,792.0,-768.0,199.0,1.0
1168.0,-1984.0,27320.0,237.0,2252.0,-735.0,192.0,1.0
2980.0,-2144.0,24900.0,-358.0,2241.0,-374.0,239.0,1.0
-14008.0,1848.0,7496.0,-629.0,347.0,482.0,193.0,1.0
-17224.0,4168.0,10016.0,-1326.0,-2733.0,880.0,198.0,1.0
-9208.0,2584.0,8344.0,-2137.0,-2336.0,537.0,221.0,1.0
5716.0,-1052.0,5692.0,-2447.0,-1699.0,16.0,203.0,1.0
988.0,296.0,14084.0,-1723.0,-2081.0,-157.0,210.0,1.0
3560.0,-1252.0,17424.0,-1165.0,-1869.0,-415.0,199.0,1.0
6192.0,-2200.0,23076.0,-407.0,-317.0,-707.0,215.0,1.0
5416.0,-1844.0,23044.0,6.0,1016.0,-752.0,221.0,1.0
1556.0,-1768.0,26112.0,157.0,2362.0,-694.0,197.0,1.0
-6112.0,-1360.0,12704.0,-424.0,1794.0,-162.0,235.0,1.0
-12036.0,2080.0,7904.0,-682.0,-39.0,609.0,196.0,1.0
-16568.0,4568.0,9792.0,-1309.0,-2650.0,978.0,193.0,1.0
-3404.0,1868.0,15504.0,-2201.0,-2283.0,473.0,215.0,1.0
2968.0,676.0,11048.0,-2437.0,-1763.0,26.0,206.0,1.0
5352.0,-1144.0,6252.0,-1950.0,-1738.0,-152.0,221.0,1.0
7672.0,-1800.0,16168.0,-1319.0,-2267.0,-378.0,194.0,1.0
9424.0,-2188.0,19436.0,-778.0,-728.0,-645.0,236.0,1.0
6660.0,-1820.0,24704.0,-286.0,-186.0,-729.0,205.0,1.0
1584.0,-1576.0,25788.0,90.0,1357.0,-755.0,198.0,1.0
240.0,-2244.0,28360.0,181.0,2302.0,-684.0,195.0,1.0
3216.0,-1904.0,24748.0,-305.0,2308.0,-403.0,224.0,1.0
-508.0,-960.0,19380.0,-532.0,930.0,246.0,204.0,1.0
-15836.0,3224.0,8584.0,-857.0,-1170.0,790.0,206.0,1.0
-16160.0,3364.0,9952.0,-1423.0,-2794.0,939.0,200.0,1.0
-8936.0,2760.0,8408.0,-2238.0,-2212.0,432.0,210.0,1.0
4176.0,-668.0,7544.0,-2517.0,-1877.0,9.0,203.0,1.0
4232.0,-988.0,7812.0,-1951.0,-1664.0,-102.0,213.0,1.0
572.0,212.0,15608.0,-1448.0,-2374.0,-288.0,195.0,1.0
9068.0,-1744.0,22260.0,-904.0,-927.0,-585.0,229.0,1.0
5088.0,-2060.0,25128.0,-410.0,-389.0,-746.0,210.0,1.0
6028.0,-2176.0,22988.0,7.0,1028.0,-729.0,216.0,1.0
6368.0,-956.0,21696.0,237.0,2190.0,-716.0,186.0,1.0
1556.0,-808.0,20048.0,-289.0,2405.0,-446.0,216.0,1.0
-5756.0,-1232.0,15256.0,-514.0,1249.0,51.0,209.0,1.0
-9008.0,420.0,9720.0,-872.0,-1116.0,780.0,208.0,1.0
-9180.0,2744.0,8636.0,-1419.0,-2791.0,935.0,190.0,1.0
-4436.0,3416.0,12936.0,-2205.0,-2224.0,507.0,222.0,1.0
-1924.0,1704.0,15380.0,-2436.0,-1744.0,-5.0,203.0,1.0
140.0,-348.0,16660.0,-1779.0,-1850.0,-151.0,231.0,1.0
4320.0,-1464.0,18016.0,-1346.0,-2326.0,-356.0,194.0,1.0
8828.0,-1896.0,15988.0,-735.0,-621.0,-653.0,238.0,1.0
6684.0,-1996.0,21876.0,-178.0,-14.0,-752.0,199.0,1.0
4032.0,-660.0,23272.0,92.0,1393.0,-772.0,206.0,1.0
292.0,-1976.0,28184.0,188.0,2448.0,-655.0,194.0,1.0
2028.0,-2720.0,26276.0,-413.0,2132.0,-317.0,236.0,1.0
-10464.0,1860.0,7644.0,-578.0,548.0,398.0,196.0,1.0
-15836.0,2896.0,8184.0,-1069.0,-1992.0,888.0,213.0,1.0
-15892.0,3312.0,9808.0,-1795.0,-2565.0,752.0,197.0,1.0
1408.0,1560.0,13284.0,-2460.0,-2087.0,154.0,219.0,1.0
5476.0,-1032.0,6080.0,-2098.0,-1627.0,-103.0,210.0,1.0
1904.0,524.0,13372.0,-1369.0,-2387.0,-330.0,194.0,1.0
9628.0,-1796.0,21520.0,-825.0,-632.0,-631.0,239.0,1.0
4644.0,-2176.0,25160.0,-182.0,45.0,-791.0,195.0,1.0
6304.0,-1732.0,22184.0,261.0,1801.0,-752.0,207.0,1.0
3052.0,-592.0,21408.0,-211.0,2453.0,-482.0,206.0,1.0
-6060.0,-1120.0,14600.0,-493.0,1173.0,89.0,205.0,1.0
-11216.0,1824.0,9140.0,-995.0,-1638.0,822.0,193.0,1.0
-6056.0,2744.0,10412.0,-1800.0,-2612.0,746.0,199.0,1.0
-2956.0,1796.0,15032.0,-2500.0,-2041.0,129.0,221.0,1.0
3028.0,-220.0,9932.0,-1962.0,-1675.0,-125.0,206.0,1.0
4468.0,-1400.0,18076.0,-1445.0,-2387.0,-307.0,197.0,1.0
9336.0,-1852.0,16008.0,-913.0,-810.0,-567.0,232.0,1.0
8928.0,-1648.0,22532.0,-251.0,-160.0,-744.0,205.0,1.0
3556.0,-808.0,23476.0,66.0,1184.0,-740.0,195.0,1.0
60.0,-1988.0,28520.0,237.0,2282.0,-685.0,196.0,1.0
1592.0,-2512.0,26752.0,-240.0,2428.0,-492.0,210.0,1.0
-8432.0,-212.0,9796.0,-463.0,1244.0,27.0,216.0,1.0
-11704.0,2388.0,6088.0,-589.0,267.0,484.0,184.0,1.0
-14832.0,2460.0,7436.0,-1163.0,-2263.0,932.0,214.0,1.0
-17240.0,4376.0,10904.0,-1717.0,-2641.0,819.0,199.0,1.0
-2960.0,1560.0,14808.0,-2320.0,-2039.0,355.0,240.0,1.0
460.0,1944.0,14524.0,-2401.0,-1778.0,-17.0,202.0,1.0
732.0,-600.0,16508.0,-1807.0,-1857.0,-138.0,193.0,1.0
3212.0,-1372.0,19412.0,-1369.0,-2312.0,-376.0,197.0,1.0
8020.0,-2028.0,16232.0,-884.0,-786.0,-621.0,229.0,1.0
5548.0,-2316.0,23256.0,-267.0,-263.0,-729.0,208.0,1.0
7236.0,-1220.0,20976.0,56.0,1081.0,-775.0,215.0,1.0
2896.0,-1388.0,24164.0,243.0,2129.0,-749.0,196.0,1.0
-388.0,-2012.0,29352.0,-241.0,2516.0,-474.0,216.0,1.0
-8888.0,-1492.0,13792.0,-518.0,1086.0,105.0,212.0,1.0
-11764.0,2336.0,8044.0,-769.0,-942.0,795.0,205.0,1.0
-15588.0,3832.0,8340.0,-1552.0,-2823.0,923.0,196.0,1.0
-2404.0,1964.0,13892.0,-2357.0,-2058.0,321.0,232.0,1.0
1528.0,976.0,12376.0,-2299.0,-1659.0,-79.0,195.0,1.0
5104.0,-972.0,6568.0,-1677.0,-2037.0,-195.0,210.0,1.0
7744.0,-1772.0,15860.0,-1100.0,-1850.0,-483.0,199.0,1.0
11000.0,-2148.0,17644.0,-663.0,-625.0,-673.0,234.0,1.0
7004.0,-1644.0,21648.0,-162.0,173.0,-744.0,202.0,1.0
4868.0,-796.0,22948.0,109.0,1384.0,-728.0,207.0,1.0
368.0,-2008.0,27852.0,178.0,2277.0,-681.0,194.0,1.0
636.0,-2520.0,27696.0,-376.0,2181.0,-362.0,220.0,1.0
-9288.0,-76.0,10408.0,-499.0,961.0,203.0,207.0,1.0
-13132.0,2204.0,5816.0,-815.0,-1084.0,794.0,202.0,1.0
-16732.0,4548.0,10524.0,-1454.0,-2824.0,922.0,195.0,1.0
-1916.0,1736.0,14696.0,-2331.0,-2086.0,388.0,234.0,1.0
2024.0,312.0,10472.0,-2386.0,-1752.0,-31.0,197.0,1.0
4904.0,-1188.0,7216.0,-1675.0,-2038.0,-208.0,210.0,1.0
9916.0,-2128.0,15832.0,-1063.0,-1612.0,-479.0,200.0,1.0
8176.0,-1852.0,24132.0,-405.0,-425.0,-753.0,209.0,1.0
3932.0,-2272.0,25260.0,22.0,1006.0,-753.0,226.0,1.0
728.0,-2856.0,27344.0,147.0,2450.0,-665.0,191.0,1.0
1988.0,-716.0,18444.0,-387.0,2033.0,-225.0,239.0,1.0
-8416.0,-1416.0,13708.0,-567.0,219.0,479.0,190.0,1.0
-11704.0,3448.0,9456.0,-1351.0,-2740.0,959.0,191.0,1.0
-3636.0,3692.0,12356.0,-2227.0,-2151.0,484.0,208.0,1.0
-672.0,1928.0,15028.0,-2387.0,-1688.0,-48.0,200.0,1.0
540.0,-976.0,18240.0,-1690.0,-2068.0,-186.0,205.0,1.0
7468.0,-1928.0,16188.0,-1064.0,-1562.0,-516.0,206.0,1.0
10180.0,-1932.0,19900.0,-377.0,-390.0,-751.0,210.0,1.0
4164.0,-812.0,23220.0,82.0,1290.0,-779.0,197.0,1.0
-268.0,-2180.0,29164.0,154.0,2441.0,-655.0,194.0,1.0
4044.0,-1148.0,23128.0,-415.0,1995.0,-289.0,238.0,1.0
-14044.0,1932.0,6228.0,-560.0,82.0,562.0,191.0,1.0
-16956.0,3952.0,10188.0,-1275.0,-2611.0,985.0,204.0,1.0
-9496.0,2276.0,9424.0,-2109.0,-2330.0,625.0,216.0,1.0
4736.0,-972.0,6908.0,-2484.0,-1834.0,-4.0,201.0,1.0
2712.0,820.0,13092.0,-1745.0,-1866.0,-145.0,207.0,1.0
3312.0,-1428.0,19320.0,-1232.0,-2002.0,-485.0,202.0,1.0
10588.0,-2296.0,16428.0,-438.0,-394.0,-732.0,209.0,1.0
6004.0,-976.0,21948.0,130.0,1468.0,-743.0,210.0,1.0
-524.0,-2408.0,29488.0,-5.0,2532.0,-627.0,194.0,1.0
2924.0,-348.0,20408.0,-447.0,1554.0,9.0,207.0,1.0
-15712.0,5048.0,8884.0,-932.0,-1389.0,844.0,215.0,1.0
-9396.0,2168.0,9480.0,-1699.0,-2722.0,852.0,199.0,1.0
-2824.0,1812.0,14012.0,-2511.0,-2067.0,76.0,210.0,1.0
612.0,-748.0,17240.0,-1745.0,-1896.0,-158.0,212.0,1.0
7704.0,-1940.0,16288.0,-1163.0,-1781.0,-499.0,202.0,1.0
8760.0,-1728.0,23664.0,-188.0,-152.0,-767.0,202.0,1.0
172.0,-2060.0,28284.0,223.0,1910.0,-737.0,205.0,1.0
3192.0,-772.0,22720.0,-262.0,2426.0,-495.0,204.0,1.0
-7252.0,-1244.0,13852.0,-573.0,411.0,459.0,193.0,1.0
-13708.0,1984.0,7000.0,-1329.0,-2747.0,981.0,194.0,1.0
-2996.0,2216.0,13384.0,-2319.0,-2188.0,435.0,230.0,1.0
2932.0,-448.0,9464.0,-2213.0,-1687.0,-46.0,202.0,1.0
2752.0,88.0,11660.0,-1420.0,-2396.0,-337.0,194.0,1.0
8888.0,-1628.0,23576.0,-618.0,-421.0,-710.0,229.0,1.0
4992.0,-2368.0,23664.0,-18.0,857.0,-767.0,207.0,1.0
3260.0,-1136.0,24224.0,135.0,2399.0,-673.0,194.0,1.0
-8076.0,-1280.0,13528.0,-445.0,1427.0,-4.0,214.0,1.0
-13692.0,2012.0,6556.0,-913.0,-1319.0,852.0,219.0,1.0
-15868.0,3268.0,9848.0,-1842.0,-2571.0,782.0,199.0,1.0
2940.0,-312.0,9448.0,-2512.0,-2015.0,45.0,209.0,1.0
4008.0,-488.0,9412.0,-1798.0,-1798.0,-139.0,187.0,1.0
1848.0,-1000.0,19628.0,-1124.0,-1938.0,-454.0,199.0,1.0
3864.0,-2292.0,25408.0,-442.0,-384.0,-722.0,213.0,1.0
7060.0,-960.0,21216.0,145.0,1503.0,-751.0,209.0,1.0
-500.0,-2116.0,29216.0,-14.0,2537.0,-588.0,192.0,1.0
3712.0,-736.0,22476.0,-467.0,1411.0,8.0,212.0,1.0
-15624.0,3616.0,8224.0,-862.0,-1240.0,850.0,212.0,1.0
-11916.0,3684.0,9700.0,-1694.0,-2734.0,876.0,199.0,1.0
-3192.0,2824.0,12776.0,-2506.0,-2062.0,143.0,213.0,1.0
1904.0,460.0,14428.0,-1714.0,-1962.0,-177.0,206.0,1.0
5608.0,-2124.0,17848.0,-1080.0,-1565.0,-502.0,203.0,1.0
10272.0,-1692.0,21028.0,-252.0,-203.0,-759.0,197.0,1.0
496.0,-2036.0,27492.0,248.0,2125.0,-768.0,193.0,1.0
2972.0,-876.0,23308.0,-367.0,2166.0,-331.0,238.0,1.0
-7780.0,-1240.0,13808.0,-696.0,-557.0,725.0,200.0,1.0
-8688.0,2248.0,8588.0,-1605.0,-2811.0,931.0,199.0,1.0
-1872.0,1724.0,14644.0,-2521.0,-2067.0,130.0,207.0,1.0
5660.0,-1112.0,6064.0,-1654.0,-2077.0,-193.0,205.0,1.0
10864.0,-2268.0,17188.0,-903.0,-885.0,-618.0,221.0,1.0
4264.0,-2388.0,25272.0,-49.0,525.0,-803.0,198.0,1.0
5528.0,-1092.0,22552.0,171.0,2412.0,-694.0,196.0,1.0
-7460.0,-1244.0,13172.0,-455.0,1559.0,-27.0,208.0,1.0
-15180.0,2808.0,7560.0,-1215.0,-2481.0,986.0,202.0,1.0
-10580.0,2720.0,9240.0,-2332.0,-2158.0,472.0,230.0,1.0
4648.0,-1056.0,8036.0,-2021.0,-1625.0,-81.0,202.0,1.0
1812.0,-1112.0,19452.0,-1249.0,-2180.0,-403.0,188.0,1.0
11312.0,-2316.0,16220.0,-380.0,-340.0,-751.0,206.0,1.0
3216.0,-1156.0,24660.0,229.0,1906.0,-743.0,202.0,1.0
1644.0,-2592.0,26248.0,-372.0,2284.0,-361.0,232.0,1.0
-15404.0,3020.0,7900.0,-741.0,-484.0,680.0,196.0,1.0
-11628.0,3344.0,9408.0,-1614.0,-2868.0,900.0,194.0,1.0
-2452.0,1804.0,13368.0,-2496.0,-2091.0,113.0,210.0,1.0
1176.0,-1116.0,18652.0,-1673.0,-2082.0,-199.0,202.0,1.0
10312.0,-2204.0,16784.0,-848.0,-716.0,-644.0,233.0,1.0
4240.0,-2268.0,25288.0,56.0,978.0,-754.0,212.0,1.0
2276.0,-812.0,22644.0,-31.0,2494.0,-576.0,194.0,1.0
-10104.0,-352.0,11844.0,-533.0,847.0,301.0,196.0,1.0
-15656.0,4516.0,8736.0,-1305.0,-2726.0,1015.0,191.0,1.0
392.0,1988.0,14764.0,-2449.0,-2106.0,351.0,231.0,1.0
5148.0,-1204.0,6900.0,-2209.0,-1627.0,-68.0,198.0,1.0
1520.0,292.0,15052.0,-1388.0,-2413.0,-345.0,192.0,1.0
7612.0,-1768.0,24576.0,-873.0,-657.0,-615.0,225.0,1.0
3680.0,-2492.0,25500.0,-154.0,-163.0,-799.0,204.0,1.0
8028.0,-1460.0,20500.0,98.0,1401.0,-757.0,207.0,1.0
4008.0,-776.0,23364.0,88.0,2484.0,-670.0,192.0,1.0
-2036.0,-856.0,18660.0,-378.0,2182.0,-283.0,212.0,1.0
-8000.0,-1292.0,15808.0,-519.0,1013.0,194.0,206.0,1.0
-9568.0,796.0,9244.0,-858.0,-1222.0,822.0,204.0,1.0
-8824.0,3052.0,8596.0,-1462.0,-2773.0,927.0,195.0,1.0
-3704.0,3348.0,12428.0,-2118.0,-2091.0,508.0,212.0,1.0
-2640.0,1312.0,15028.0,-2474.0,-1938.0,-3.0,205.0,1.0
3044.0,624.0,11580.0,-2009.0,-1586.0,-59.0,202.0,1.0
1128.0,-532.0,15572.0,-1645.0,-2149.0,-219.0,199.0,1.0
2116.0,-936.0,18808.0,-1175.0,-1955.0,-487.0,197.0,1.0
6200.0,-1864.0,25548.0,-809.0,-739.0,-688.0,235.0,1.0
3092.0,-2256.0,27488.0,-408.0,-523.0,-742.0,209.0,1.0
3524.0,-2524.0,26240.0,-83.0,687.0,-759.0,201.0,1.0
6060.0,-2284.0,23128.0,141.0,1631.0,-770.0,217.0,1.0
592.0,-2456.0,27784.0,105.0,2529.0,-682.0,193.0,1.0
3668.0,-2320.0,24556.0,-330.0,2348.0,-389.0,206.0,1.0
3516.0,-684.0,21160.0,-441.0,1377.0,-28.0,218.0,1.0
-12188.0,2708.0,5672.0,-549.0,78.0,551.0,198.0,1.0
-15108.0,2344.0,7388.0,-1009.0,-1930.0,919.0,188.0,1.0
-16812.0,4192.0,10860.0,-1656.0,-2740.0,867.0,194.0,1.0
-1888.0,1292.0,15236.0,-2351.0,-1935.0,395.0,232.0,1.0
988.0,1416.0,13256.0,-2375.0,-1847.0,-42.0,202.0,1.0
3828.0,-1212.0,6764.0,-1859.0,-1615.0,-122.0,185.0,1.0
4120.0,-1940.0,18788.0,-1308.0,-2448.0,-377.0,188.0,1.0
10204.0,-1952.0,15332.0,-843.0,-749.0,-659.0,230.0,1.0
10760.0,-1792.0,20560.0,-258.0,-282.0,-746.0,205.0,1.0
5772.0,-572.0,21832.0,139.0,1545.0,-799.0,208.0,1.0
-656.0,-1996.0,29204.0,138.0,2439.0,-686.0,191.0,1.0
1268.0,-2640.0,26644.0,-452.0,1851.0,-204.0,238.0,1.0
-12064.0,2436.0,7908.0,-552.0,271.0,493.0,194.0,1.0
-15328.0,4416.0,8536.0,-1363.0,-2630.0,998.0,197.0,1.0
-12676.0,3768.0,9976.0,-2130.0,-2193.0,536.0,217.0,1.0
2728.0,-984.0,8540.0,-2411.0,-1899.0,-27.0,201.0,1.0
4348.0,-500.0,8984.0,-1677.0,-1904.0,-189.0,209.0,1.0
1376.0,-1100.0,18640.0,-1184.0,-1847.0,-494.0,198.0,1.0
3320.0,-2292.0,26572.0,-257.0,-307.0,-779.0,206.0,1.0
7772.0,-1368.0,21120.0,113.0,1683.0,-730.0,214.0,1.0
-192.0,-2120.0,28668.0,-185.0,2493.0,-492.0,203.0,1.0
-12316.0,888.0,11532.0,-541.0,699.0,326.0,199.0,1.0
-15408.0,4848.0,8280.0,-1264.0,-2553.0,1022.0,190.0,1.0
-10092.0,2448.0,9720.0,-2311.0,-2057.0,417.0,229.0,1.0
5088.0,-1264.0,7196.0,-2174.0,-1624.0,-105.0,200.0,1.0
808.0,-784.0,17540.0,-1309.0,-2369.0,-436.0,193.0,1.0
8392.0,-1964.0,15540.0,-640.0,-401.0,-704.0,219.0,1.0
7544.0,-1168.0,21196.0,69.0,1215.0,-798.0,223.0,1.0
-916.0,-2548.0,29528.0,-16.0,2496.0,-577.0,192.0,1.0
1488.0,-668.0,17360.0,-514.0,1203.0,158.0,207.0,1.0
-15436.0,3492.0,8860.0,-1186.0,-2387.0,974.0,197.0,1.0
-3912.0,3576.0,12124.0,-2258.0,-2264.0,488.0,228.0,1.0
2268.0,500.0,11488.0,-2135.0,-1624.0,-110.0,197.0,1.0
7056.0,-2180.0,16492.0,-1191.0,-2225.0,-463.0,191.0,1.0
8452.0,-1748.0,24292.0,-378.0,-316.0,-762.0,205.0,1.0
5500.0,-2024.0,22744.0,247.0,1991.0,-746.0,206.0,1.0
2156.0,-504.0,18048.0,-304.0,2391.0,-420.0,220.0,1.0
-11420.0,64.0,12132.0,-625.0,-103.0,626.0,193.0,1.0
-15304.0,4768.0,8344.0,-1525.0,-2930.0,947.0,188.0,1.0
1120.0,1568.0,14000.0,-2522.0,-2078.0,193.0,216.0,1.0
4860.0,-1148.0,8316.0,-1768.0,-1799.0,-193.0,201.0,1.0
2036.0,-1196.0,19696.0,-999.0,-1228.0,-577.0,203.0,1.0
3888.0,-2420.0,24792.0,-240.0,-178.0,-771.0,196.0,1.0
4608.0,-812.0,23108.0,273.0,2170.0,-777.0,193.0,1.0
-272.0,-2884.0,27952.0,-358.0,2238.0,-331.0,228.0,1.0
-13132.0,2640.0,7436.0,-525.0,366.0,466.0,196.0,1.0
-16164.0,4800.0,10508.0,-1312.0,-2630.0,978.0,193.0,1.0
-10780.0,3208.0,9652.0,-2128.0,-2141.0,595.0,220.0,1.0
1252.0,-1164.0,7808.0,-2364.0,-2159.0,62.0,201.0,1.0
5624.0,-616.0,7736.0,-1705.0,-1735.0,-164.0,202.0,1.0
4416.0,-796.0,14184.0,-1352.0,-1745.0,-522.0,189.0,1.0
5536.0,-2000.0,26256.0,-725.0,-642.0,-681.0,232.0,1.0
3536.0,-2408.0,25512.0,-116.0,157.0,-761.0,197.0,1.0
8268.0,-1176.0,20092.0,264.0,1929.0,-772.0,207.0,1.0
2500.0,-536.0,20252.0,-127.0,2604.0,-527.0,198.0,1.0
-7452.0,-1036.0,16904.0,-473.0,1075.0,117.0,215.0,1.0
-10052.0,756.0,10004.0,-742.0,-620.0,763.0,202.0,1.0
-8292.0,2616.0,8960.0,-1463.0,-2748.0,905.0,195.0,1.0
-3216.0,3044.0,12500.0,-2090.0,-2155.0,555.0,216.0,1.0
-2404.0,924.0,15676.0,-2422.0,-1866.0,18.0,201.0,1.0
2496.0,568.0,13176.0,-1939.0,-1594.0,-136.0,202.0,1.0
1648.0,-1092.0,18344.0,-1423.0,-2403.0,-414.0,193.0,1.0
4860.0,-1992.0,18484.0,-896.0,-917.0,-607.0,225.0,1.0
4128.0,-2212.0,26100.0,-487.0,-487.0,-723.0,209.0,1.0
6728.0,-1764.0,21792.0,-54.0,822.0,-747.0,205.0,1.0
6620.0,-908.0,21192.0,220.0,1931.0,-729.0,213.0,1.0
2252.0,-1276.0,25372.0,-29.0,2620.0,-590.0,195.0,1.0
-5560.0,-980.0,18376.0,-376.0,1671.0,-218.0,234.0,1.0
-8460.0,-1060.0,12980.0,-562.0,473.0,478.0,201.0,1.0
-9988.0,1916.0,7064.0,-931.0,-1593.0,872.0,223.0,1.0
-7100.0,2660.0,8208.0,-1462.0,-2702.0,891.0,194.0,1.0
-4728.0,2596.0,12632.0,-2101.0,-2129.0,558.0,220.0,1.0
-3796.0,1080.0,15436.0,-2514.0,-1987.0,55.0,204.0,1.0
3740.0,-80.0,9812.0,-1964.0,-1565.0,-123.0,201.0,1.0
1564.0,-452.0,15492.0,-1517.0,-2256.0,-322.0,195.0,1.0
2748.0,-1112.0,19184.0,-1033.0,-1527.0,-553.0,200.0,1.0
4320.0,-1708.0,27236.0,-607.0,-611.0,-723.0,222.0,1.0
4212.0,-2352.0,25840.0,-150.0,401.0,-803.0,199.0,1.0
6904.0,-1776.0,21408.0,162.0,1586.0,-776.0,214.0,1.0
3216.0,-2216.0,24556.0,-3.0,2640.0,-570.0,192.0,1.0
756.0,-480.0,21156.0,-371.0,1850.0,-225.0,220.0,1.0
-5868.0,-944.0,18056.0,-560.0,834.0,259.0,208.0,1.0
-8488.0,-1076.0,13012.0,-771.0,-686.0,741.0,196.0,1.0
-13800.0,3128.0,9456.0,-1287.0,-2523.0,982.0,198.0,1.0
-7756.0,3100.0,7940.0,-1900.0,-2382.0,700.0,198.0,1.0
-5640.0,1980.0,10880.0,-2370.0,-1864.0,252.0,210.0,1.0
4328.0,-1476.0,6596.0,-2349.0,-1739.0,-86.0,199.0,1.0
4776.0,-1380.0,6988.0,-1892.0,-1594.0,-180.0,213.0,1.0
3444.0,-584.0,9340.0,-1433.0,-2350.0,-328.0,195.0,1.0
8864.0,-1820.0,16916.0,-1023.0,-1417.0,-580.0,203.0,1.0
10628.0,-2028.0,18004.0,-654.0,-558.0,-748.0,232.0,1.0
9580.0,-1532.0,21452.0,-273.0,-139.0,-788.0,202.0,1.0
6876.0,-908.0,20948.0,-18.0,1018.0,-782.0,210.0,1.0
4764.0,-544.0,22528.0,184.0,2046.0,-751.0,207.0,1.0
1828.0,-1428.0,25760.0,-17.0,2555.0,-589.0,191.0,1.0
-4472.0,-848.0,18924.0,-301.0,2066.0,-375.0,208.0,1.0
-6464.0,-1084.0,15616.0,-481.0,1063.0,135.0,215.0,1.0
-7912.0,-920.0,11812.0,-685.0,-241.0,688.0,195.0,1.0
-14792.0,3504.0,9648.0,-1091.0,-2068.0,917.0,191.0,1.0
-10140.0,3488.0,7468.0,-1615.0,-2589.0,899.0,194.0,1.0
-6800.0,2432.0,8596.0,-2125.0,-2022.0,480.0,224.0,1.0
4064.0,-244.0,8292.0,-2438.0,-1852.0,35.0,207.0,1.0
4504.0,-1560.0,6628.0,-2267.0,-1683.0,-65.0,196.0,1.0
3796.0,-1376.0,7812.0,-1720.0,-1836.0,-214.0,207.0,1.0
7336.0,-1904.0,17176.0,-1233.0,-2235.0,-433.0,188.0,1.0
10752.0,-2192.0,17316.0,-888.0,-843.0,-662.0,217.0,1.0
8372.0,-1528.0,22568.0,-325.0,-307.0,-790.0,208.0,1.0
5264.0,-772.0,22160.0,-57.0,860.0,-748.0,204.0,1.0
708.0,-1656.0,27176.0,247.0,2073.0,-763.0,201.0,1.0
48.0,-2444.0,28492.0,-74.0,2538.0,-535.0,194.0,1.0
1852.0,-940.0,24388.0,-437.0,1544.0,-172.0,237.0,1.0
-13780.0,2804.0,7316.0,-573.0,277.0,546.0,198.0,1.0
-15292.0,2720.0,11676.0,-1045.0,-1867.0,840.0,208.0,1.0
-13044.0,3376.0,8400.0,-1912.0,-2136.0,738.0,194.0,1.0
-3928.0,1104.0,16704.0,-2379.0,-2215.0,387.0,234.0,1.0
5692.0,-876.0,7316.0,-2297.0,-1596.0,-99.0,198.0,1.0
4204.0,-1560.0,7084.0,-1803.0,-1796.0,-148.0,211.0,1.0
4700.0,-1752.0,18132.0,-1448.0,-2309.0,-333.0,192.0,1.0
6004.0,-1820.0,17808.0,-1011.0,-1289.0,-604.0,201.0,1.0
8052.0,-1672.0,18188.0,-621.0,-556.0,-776.0,227.0,1.0
5552.0,-2184.0,23460.0,-229.0,27.0,-780.0,201.0,1.0
5772.0,-1392.0,22148.0,-72.0,955.0,-780.0,205.0,1.0
4748.0,-504.0,23052.0,213.0,2159.0,-752.0,198.0,1.0
1680.0,-1492.0,25920.0,-75.0,2535.0,-533.0,194.0,1.0
-5536.0,-1060.0,18492.0,-383.0,1310.0,-118.0,231.0,1.0
-6960.0,-924.0,13372.0,-561.0,416.0,503.0,197.0,1.0
-7900.0,360.0,8288.0,-889.0,-1298.0,873.0,202.0,1.0
-10876.0,3340.0,8224.0,-1186.0,-2343.0,989.0,201.0,1.0
-7564.0,3668.0,7896.0,-1697.0,-2521.0,801.0,191.0,1.0
-6724.0,1940.0,9864.0,-2232.0,-2023.0,407.0,218.0,1.0
4232.0,-1044.0,7592.0,-2458.0,-1846.0,-5.0,207.0,1.0
4612.0,-1572.0,6544.0,-2128.0,-1619.0,-125.0,195.0,1.0
3804.0,-1416.0,8052.0,-1570.0,-2020.0,-260.0,205.0,1.0
7216.0,-1868.0,17480.0,-1151.0,-2017.0,-519.0,192.0,1.0
10568.0,-2064.0,17200.0,-805.0,-679.0,-727.0,234.0,1.0
8796.0,-1412.0,22512.0,-246.0,-68.0,-751.0,205.0,1.0
4924.0,-636.0,22680.0,34.0,1143.0,-791.0,214.0,1.0
800.0,-1876.0,27580.0,166.0,2402.0,-675.0,193.0,1.0
1676.0,-2636.0,27080.0,-266.0,2177.0,-379.0,203.0,1.0
-9760.0,1804.0,7552.0,-507.0,832.0,266.0,206.0,1.0
-15224.0,2584.0,7408.0,-724.0,-638.0,766.0,203.0,1.0
-15744.0,3556.0,10036.0,-1518.0,-2750.0,904.0,191.0,1.0
-7144.0,2188.0,8676.0,-2291.0,-1990.0,362.0,230.0,1.0
5424.0,-1548.0,6068.0,-2206.0,-1680.0,-130.0,188.0,1.0
3428.0,532.0,11664.0,-1473.0,-2328.0,-355.0,189.0,1.0
2620.0,-1372.0,20232.0,-933.0,-1031.0,-634.0,194.0,1.0
2584.0,-2036.0,27580.0,-260.0,-292.0,-817.0,203.0,1.0
7896.0,-1108.0,20168.0,115.0,1741.0,-742.0,216.0,1.0
1692.0,-1372.0,26052.0,-74.0,2556.0,-530.0,191.0,1.0
-8080.0,-1116.0,16148.0,-408.0,1079.0,67.0,219.0,1.0
-9980.0,1896.0,7796.0,-714.0,-399.0,728.0,194.0,1.0
-15428.0,2620.0,7492.0,-1364.0,-2545.0,971.0,188.0,1.0
-3772.0,1852.0,14372.0,-2051.0,-2198.0,581.0,189.0,1.0
4744.0,-632.0,8368.0,-2023.0,-1603.0,-118.0,200.0,1.0
2748.0,-1008.0,18048.0,-1572.0,-2073.0,-244.0,197.0,1.0
3948.0,-1852.0,19716.0,-1054.0,-1681.0,-558.0,200.0,1.0
6476.0,-1636.0,18244.0,-736.0,-591.0,-729.0,235.0,1.0
4296.0,-2204.0,26108.0,-368.0,-261.0,-758.0,207.0,1.0
5536.0,-1772.0,23340.0,-88.0,845.0,-789.0,202.0,1.0
6448.0,-1176.0,21216.0,167.0,1898.0,-729.0,214.0,1.0
1276.0,-1988.0,25036.0,78.0,2579.0,-600.0,195.0,1.0
-108.0,-644.0,23192.0,-272.0,1674.0,-279.0,214.0,1.0
-3280.0,-464.0,21244.0,-432.0,1019.0,92.0,231.0,1.0
-5760.0,-1056.0,17984.0,-564.0,406.0,491.0,197.0,1.0
-17136.0,3028.0,10048.0,-837.0,-1249.0,866.0,208.0,1.0
-14456.0,3500.0,9844.0,-1475.0,-2554.0,924.0,188.0,1.0
-8664.0,3604.0,7352.0,-2050.0,-2141.0,570.0,202.0,1.0
2912.0,868.0,11924.0,-2461.0,-1883.0,103.0,209.0,1.0
4632.0,-1496.0,6488.0,-2049.0,-1584.0,-167.0,201.0,1.0
4744.0,-1552.0,7032.0,-1588.0,-2140.0,-292.0,195.0,1.0
7056.0,-1964.0,17624.0,-1099.0,-1794.0,-538.0,199.0,1.0
10780.0,-2192.0,18004.0,-645.0,-511.0,-710.0,219.0,1.0
6816.0,-912.0,20824.0,-171.0,459.0,-787.0,200.0,1.0
1348.0,-1348.0,26140.0,189.0,2014.0,-721.0,202.0,1.0
648.0,-2616.0,27952.0,-242.0,2285.0,-410.0,196.0,1.0
1168.0,-568.0,21824.0,-481.0,1016.0,113.0,209.0,1.0
-15232.0,2572.0,8016.0,-805.0,-838.0,807.0,203.0,1.0
-14584.0,3280.0,9772.0,-1583.0,-2690.0,938.0,187.0,1.0
-5524.0,1792.0,9132.0,-2344.0,-2009.0,281.0,232.0,1.0
5656.0,-1400.0,6492.0,-2299.0,-1758.0,-86.0,193.0,1.0
2816.0,404.0,12984.0,-1522.0,-2205.0,-327.0,194.0,1.0
3268.0,-1368.0,19704.0,-942.0,-1101.0,-624.0,202.0,1.0
3836.0,-1940.0,27096.0,-405.0,-349.0,-782.0,206.0,1.0
6780.0,-1168.0,21068.0,51.0,1319.0,-753.0,210.0,1.0
2896.0,-1028.0,24432.0,80.0,2557.0,-646.0,196.0,1.0
-6896.0,-1044.0,16348.0,-380.0,1600.0,-170.0,236.0,1.0
-9836.0,1228.0,8712.0,-581.0,169.0,649.0,188.0,1.0
-15760.0,2844.0,8240.0,-1173.0,-2324.0,985.0,201.0,1.0
-4752.0,2032.0,15172.0,-1929.0,-2319.0,676.0,196.0,1.0
4.0,752.0,14664.0,-2453.0,-1902.0,102.0,211.0,1.0
4224.0,-952.0,7408.0,-2121.0,-1618.0,-139.0,198.0,1.0
4628.0,-1644.0,7012.0,-1549.0,-2117.0,-293.0,197.0,1.0
8608.0,-1784.0,16940.0,-986.0,-1462.0,-569.0,200.0,1.0
10304.0,-1520.0,20536.0,-479.0,-349.0,-798.0,211.0,1.0
5176.0,-468.0,22124.0,-86.0,816.0,-778.0,201.0,1.0
860.0,-1824.0,27124.0,183.0,2047.0,-743.0,203.0,1.0
1196.0,-2604.0,26972.0,-192.0,2346.0,-427.0,190.0,1.0
360.0,-760.0,23188.0,-427.0,1164.0,-21.0,223.0,1.0
-14736.0,3484.0,8152.0,-534.0,292.0,565.0,192.0,1.0
-17304.0,3292.0,10236.0,-971.0,-1860.0,904.0,203.0,1.0
-13592.0,3364.0,8764.0,-1630.0,-2549.0,855.0,194.0,1.0
80.0,684.0,14768.0,-2377.0,-1970.0,264.0,232.0,1.0
3348.0,108.0,8376.0,-2347.0,-1874.0,-62.0,201.0,1.0
5316.0,-1448.0,6908.0,-1814.0,-1546.0,-191.0,212.0,1.0
4320.0,-328.0,8924.0,-1487.0,-1999.0,-465.0,194.0,1.0
12224.0,-2660.0,17756.0,-887.0,-727.0,-714.0,216.0,1.0
5084.0,-2300.0,26216.0,-155.0,-176.0,-776.0,207.0,1.0
2768.0,-2276.0,26296.0,68.0,1155.0,-750.0,218.0,1.0
920.0,-1844.0,26884.0,185.0,2378.0,-689.0,192.0,1.0
1404.0,-1236.0,25512.0,-318.0,2010.0,-262.0,208.0,1.0
-2064.0,-220.0,19940.0,-510.0,791.0,192.0,211.0,1.0
-14708.0,3064.0,8040.0,-671.0,-426.0,688.0,190.0,1.0
-14904.0,3284.0,11908.0,-1286.0,-2202.0,878.0,202.0,1.0
-11924.0,3196.0,7756.0,-1919.0,-2034.0,729.0,200.0,1.0
-1460.0,496.0,14632.0,-2291.0,-2153.0,295.0,225.0,1.0
-416.0,-348.0,7824.0,-2193.0,-2304.0,-56.0,195.0,1.0
5988.0,-1000.0,8576.0,-1648.0,-1766.0,-267.0,209.0,1.0
11584.0,-1844.0,16804.0,-1156.0,-1384.0,-622.0,200.0,1.0
7496.0,-2252.0,24884.0,-343.0,-393.0,-780.0,210.0,1.0
1708.0,-2404.0,26876.0,62.0,976.0,-795.0,222.0,1.0
916.0,-2592.0,26680.0,232.0,2418.0,-731.0,191.0,1.0
-1924.0,-356.0,20396.0,-371.0,1683.0,-134.0,234.0,1.0
-9320.0,-1120.0,14132.0,-610.0,130.0,565.0,183.0,1.0
-11196.0,3388.0,7928.0,-1430.0,-2286.0,902.0,199.0,1.0
-4860.0,2100.0,11768.0,-2220.0,-2039.0,633.0,200.0,1.0
-1700.0,604.0,13440.0,-2335.0,-2604.0,103.0,205.0,1.0
5896.0,584.0,10108.0,-1904.0,-1911.0,-152.0,218.0,1.0
4412.0,-1592.0,19304.0,-1419.0,-1953.0,-495.0,190.0,1.0
7632.0,-2012.0,17908.0,-867.0,-753.0,-724.0,231.0,1.0
3048.0,-1880.0,26128.0,-195.0,-177.0,-811.0,203.0,1.0
7740.0,-1400.0,20772.0,64.0,1313.0,-808.0,219.0,1.0
6560.0,-916.0,20908.0,299.0,2334.0,-731.0,189.0,1.0
-4096.0,-240.0,20048.0,-242.0,2130.0,-348.0,193.0,1.0
-8312.0,-1008.0,15840.0,-516.0,983.0,76.0,214.0,1.0
-11620.0,752.0,11704.0,-660.0,-294.0,644.0,186.0,1.0
-14048.0,3236.0,6820.0,-1256.0,-2236.0,873.0,199.0,1.0
-3384.0,2260.0,12972.0,-2130.0,-1931.0,551.0,198.0,1.0
-628.0,900.0,15176.0,-2504.0,-1770.0,-11.0,208.0,1.0
4224.0,-152.0,10016.0,-1954.0,-1609.0,-133.0,201.0,1.0
2216.0,-1124.0,17036.0,-1538.0,-2220.0,-291.0,196.0,1.0
3932.0,-1896.0,18588.0,-993.0,-1560.0,-600.0,194.0,1.0
6532.0,-2056.0,17460.0,-741.0,-660.0,-722.0,232.0,1.0
4136.0,-2408.0,26036.0,-256.0,-97.0,-791.0,203.0,1.0
6024.0,-1748.0,22704.0,-55.0,930.0,-789.0,202.0,1.0
7168.0,-1004.0,21004.0,180.0,1949.0,-769.0,205.0,1.0
1868.0,-1876.0,24772.0,-37.0,2639.0,-550.0,194.0,1.0
-8.0,-432.0,22096.0,-340.0,1769.0,-261.0,216.0,1.0
-3812.0,-888.0,18768.0,-382.0,1183.0,70.0,217.0,1.0
-6648.0,-952.0,14116.0,-619.0,188.0,630.0,185.0,1.0
-14720.0,3788.0,9396.0,-1054.0,-1914.0,944.0,204.0,1.0
-7864.0,3596.0,7928.0,-1750.0,-2518.0,812.0,194.0,1.0
-4544.0,2456.0,13404.0,-2426.0,-2003.0,205.0,213.0,1.0
4692.0,-1480.0,7708.0,-2141.0,-1621.0,-129.0,201.0,1.0
2472.0,-188.0,14212.0,-1447.0,-2320.0,-357.0,192.0,1.0
3096.0,-1448.0,19580.0,-951.0,-1113.0,-644.0,201.0,1.0
3528.0,-1788.0,27912.0,-548.0,-502.0,-752.0,212.0,1.0
4380.0,-2224.0,25484.0,-76.0,622.0,-805.0,196.0,1.0
6772.0,-1064.0,21236.0,115.0,1862.0,-751.0,213.0,1.0
1660.0,-1996.0,24956.0,47.0,2642.0,-638.0,197.0,1.0
476.0,-484.0,22612.0,-330.0,1800.0,-286.0,184.0,1.0
-2604.0,-512.0,20404.0,-461.0,1093.0,103.0,223.0,1.0
-5524.0,-1116.0,18144.0,-552.0,422.0,523.0,194.0,1.0
-16960.0,2380.0,9336.0,-865.0,-1465.0,940.0,200.0,1.0
-16552.0,3548.0,10096.0,-1322.0,-2443.0,980.0,199.0,1.0
-5032.0,1692.0,15652.0,-1832.0,-2342.0,676.0,197.0,1.0
-3740.0,444.0,15672.0,-2315.0,-1840.0,266.0,233.0,1.0
-372.0,508.0,14552.0,-2458.0,-1775.0,-7.0,204.0,1.0
2960.0,1032.0,12228.0,-2162.0,-1634.0,-128.0,196.0,1.0
2864.0,-356.0,13664.0,-1567.0,-1957.0,-261.0,206.0,1.0
2536.0,-1188.0,17992.0,-1150.0,-2123.0,-539.0,194.0,1.0
6916.0,-1324.0,25464.0,-799.0,-704.0,-708.0,232.0,1.0
3796.0,-1968.0,27228.0,-314.0,-299.0,-770.0,202.0,1.0
5024.0,-1944.0,23564.0,10.0,1138.0,-793.0,215.0,1.0
7156.0,-692.0,20868.0,188.0,2388.0,-696.0,193.0,1.0
44.0,-424.0,22808.0,-216.0,2320.0,-418.0,198.0,1.0
-4460.0,-700.0,18580.0,-384.0,1241.0,8.0,231.0,1.0
-6888.0,-868.0,13932.0,-545.0,494.0,498.0,196.0,1.0
-8776.0,192.0,9416.0,-862.0,-1282.0,851.0,201.0,1.0
-10576.0,3300.0,7836.0,-1340.0,-2483.0,972.0,171.0,1.0
-7656.0,3200.0,8616.0,-1892.0,-2364.0,666.0,197.0,1.0
-6908.0,1496.0,10696.0,-2329.0,-1867.0,248.0,236.0,1.0
4140.0,-1176.0,7684.0,-2384.0,-1765.0,-72.0,205.0,1.0
4576.0,-1728.0,6712.0,-2071.0,-1564.0,-132.0,204.0,1.0
4336.0,-1732.0,7524.0,-1572.0,-2045.0,-325.0,209.0,1.0
4512.0,-2128.0,19580.0,-1236.0,-2239.0,-475.0,192.0,1.0
8060.0,-1760.0,18220.0,-788.0,-716.0,-705.0,227.0,1.0
10324.0,-1548.0,19408.0,-380.0,-222.0,-806.0,206.0,1.0
6760.0,-652.0,20704.0,-35.0,945.0,-793.0,204.0,1.0
3752.0,-400.0,23080.0,185.0,2224.0,-710.0,206.0,1.0
888.0,-1536.0,26528.0,-94.0,2549.0,-514.0,196.0,1.0
-5356.0,-880.0,17496.0,-310.0,1688.0,-236.0,210.0,1.0
-7152.0,-732.0,13472.0,-427.0,1044.0,177.0,206.0,1.0
-9420.0,728.0,9312.0,-674.0,-477.0,777.0,188.0,1.0
-13508.0,3488.0,8196.0,-1109.0,-2101.0,922.0,206.0,1.0
-6460.0,1540.0,10744.0,-1731.0,-2548.0,766.0,194.0,1.0
-4544.0,1612.0,15508.0,-2411.0,-2038.0,219.0,229.0,1.0
5424.0,-284.0,8980.0,-2114.0,-1876.0,-72.0,196.0,1.0
3952.0,-1256.0,14624.0,-1621.0,-1919.0,-267.0,200.0,1.0
5052.0,-1068.0,19932.0,-1101.0,-1334.0,-645.0,197.0,1.0
2104.0,-2168.0,27192.0,-431.0,-418.0,-785.0,209.0,1.0
6656.0,-1188.0,21256.0,-51.0,772.0,-762.0,208.0,1.0
5004.0,-1176.0,21900.0,272.0,2297.0,-733.0,191.0,1.0
-224.0,-1900.0,27800.0,-305.0,2117.0,-312.0,200.0,1.0
-10296.0,-72.0,11904.0,-563.0,635.0,461.0,202.0,1.0
-13428.0,3336.0,6212.0,-945.0,-1584.0,880.0,213.0,1.0
-14388.0,3020.0,11628.0,-1621.0,-2420.0,851.0,194.0,1.0
-3084.0,536.0,15228.0,-2373.0,-1896.0,428.0,236.0,1.0
-1228.0,1172.0,11964.0,-2179.0,-2275.0,-66.0,199.0,1.0
3844.0,-1004.0,8076.0,-1698.0,-1831.0,-198.0,206.0,1.0
8248.0,-2196.0,16784.0,-1143.0,-1630.0,-641.0,200.0,1.0
11548.0,-2332.0,18024.0,-481.0,-467.0,-798.0,213.0,1.0
6260.0,-828.0,21360.0,16.0,719.0,-810.0,204.0,1.0
1748.0,-1344.0,25864.0,269.0,2252.0,-698.0,193.0,1.0
612.0,-2060.0,27016.0,-263.0,2310.0,-317.0,192.0,1.0
-1412.0,-416.0,17232.0,-571.0,455.0,383.0,198.0,1.0
-12212.0,3952.0,9032.0,-1090.0,-1833.0,837.0,192.0,1.0
-10832.0,3520.0,8676.0,-1923.0,-2315.0,772.0,198.0,1.0
-3556.0,2380.0,12104.0,-2405.0,-2066.0,281.0,222.0,1.0
5184.0,-684.0,8448.0,-2092.0,-2108.0,-84.0,198.0,1.0
5828.0,548.0,9320.0,-1633.0,-1820.0,-331.0,202.0,1.0
4288.0,-1792.0,17084.0,-1213.0,-1711.0,-590.0,196.0,1.0
5048.0,-2736.0,26572.0,-575.0,-516.0,-751.0,219.0,1.0
2456.0,-1852.0,26468.0,-33.0,545.0,-790.0,200.0,1.0
7484.0,-1052.0,20184.0,269.0,2058.0,-731.0,195.0,1.0
444.0,-40.0,20808.0,-116.0,2420.0,-427.0,198.0,1.0
-9188.0,-1124.0,15448.0,-459.0,1000.0,154.0,209.0,1.0
-11952.0,2092.0,8664.0,-829.0,-1275.0,813.0,201.0,1.0
-6164.0,2036.0,10700.0,-1733.0,-2526.0,815.0,194.0,1.0
-2508.0,1924.0,13544.0,-2385.0,-1857.0,403.0,230.0,1.0
-848.0,1076.0,14844.0,-2249.0,-2346.0,-41.0,196.0,1.0
3872.0,-1628.0,16656.0,-1743.0,-1747.0,-272.0,209.0,1.0
6396.0,-1992.0,17768.0,-1184.0,-1549.0,-641.0,200.0,1.0
11592.0,-2476.0,18516.0,-414.0,-340.0,-802.0,207.0,1.0
6088.0,-1048.0,21752.0,148.0,1318.0,-732.0,196.0,1.0
44.0,-1736.0,27148.0,10.0,2499.0,-516.0,191.0,1.0
1236.0,-220.0,21876.0,-436.0,1251.0,102.0,218.0,1.0
-13848.0,3588.0,8632.0,-818.0,-1157.0,830.0,206.0,1.0
-10136.0,3508.0,8480.0,-1845.0,-2443.0,809.0,193.0,1.0
-2080.0,2300.0,12220.0,-2517.0,-2111.0,184.0,207.0,1.0
5180.0,704.0,12392.0,-1805.0,-1881.0,-251.0,203.0,1.0
5828.0,-1564.0,18872.0,-1204.0,-1596.0,-625.0,202.0,1.0
11632.0,-2392.0,18800.0,-210.0,-117.0,-817.0,204.0,1.0
4224.0,-1776.0,23668.0,305.0,1889.0,-755.0,215.0,1.0
596.0,-2148.0,26540.0,-261.0,2271.0,-366.0,212.0,1.0
-5024.0,-912.0,14612.0,-675.0,-207.0,665.0,188.0,1.0
-12128.0,3484.0,7572.0,-1524.0,-2631.0,989.0,190.0,1.0
-3236.0,3068.0,13304.0,-2434.0,-1952.0,389.0,231.0,1.0
-1820.0,1116.0,9812.0,-1992.0,-2191.0,-84.0,204.0,1.0
6532.0,-2080.0,17948.0,-1341.0,-1868.0,-534.0,192.0,1.0
10436.0,-2804.0,21476.0,-427.0,-211.0,-771.0,206.0,1.0
2632.0,-2044.0,25772.0,303.0,1841.0,-760.0,208.0,1.0
176.0,-424.0,24324.0,-190.0,2406.0,-392.0,182.0,1.0
-7860.0,-1040.0,12932.0,-581.0,477.0,462.0,195.0,1.0
-15596.0,2944.0,8548.0,-1289.0,-2345.0,955.0,192.0,1.0
-2884.0,2020.0,13560.0,-2258.0,-1962.0,582.0,216.0,1.0
-1740.0,1264.0,11508.0,-2218.0,-2387.0,-11.0,194.0,1.0
4700.0,-524.0,9396.0,-1670.0,-1948.0,-331.0,196.0,1.0
11816.0,-1760.0,16608.0,-1049.0,-1121.0,-691.0,207.0,1.0
7628.0,-2596.0,24372.0,-241.0,-201.0,-784.0,205.0,1.0
3904.0,-1620.0,23452.0,181.0,1569.0,-773.0,208.0,1.0
32.0,-2136.0,26840.0,185.0,2603.0,-645.0,193.0,1.0
948.0,-356.0,23268.0,-333.0,1760.0,-166.0,232.0,1.0
-5832.0,-624.0,15828.0,-573.0,367.0,479.0,196.0,1.0
-13660.0,3868.0,10228.0,-1052.0,-1805.0,833.0,204.0,1.0
-9372.0,3476.0,8616.0,-1952.0,-2158.0,752.0,198.0,1.0
-3352.0,2016.0,11832.0,-2417.0,-2121.0,260.0,223.0,1.0
4964.0,-636.0,7516.0,-2143.0,-2164.0,-17.0,198.0,1.0
5412.0,-584.0,8300.0,-1732.0,-1830.0,-251.0,203.0,1.0
4368.0,156.0,11764.0,-1435.0,-1961.0,-470.0,195.0,1.0
11168.0,-2604.0,19260.0,-920.0,-896.0,-683.0,228.0,1.0
6504.0,-2256.0,25080.0,-325.0,-366.0,-770.0,213.0,1.0
2928.0,-2684.0,27384.0,-95.0,485.0,-780.0,200.0,1.0
2228.0,-1316.0,25724.0,209.0,1737.0,-749.0,212.0,1.0
340.0,-1992.0,26564.0,117.0,2636.0,-584.0,197.0,1.0
2080.0,-1428.0,24984.0,-348.0,1862.0,-193.0,232.0,1.0
-12588.0,2652.0,7604.0,-598.0,435.0,458.0,195.0,1.0
-14688.0,2780.0,8032.0,-914.0,-1540.0,867.0,215.0,1.0
-13972.0,3812.0,9804.0,-1672.0,-2475.0,828.0,190.0,1.0
-796.0,340.0,14812.0,-2408.0,-1851.0,440.0,233.0,1.0
-832.0,-1004.0,8160.0,-2276.0,-2459.0,50.0,195.0,1.0
5384.0,-784.0,9088.0,-1768.0,-1878.0,-234.0,203.0,1.0
4468.0,-1452.0,15372.0,-1188.0,-1579.0,-632.0,196.0,1.0
4848.0,-2896.0,26168.0,-366.0,-248.0,-816.0,209.0,1.0
4040.0,-1608.0,24392.0,77.0,1068.0,-808.0,222.0,1.0
6068.0,-1140.0,21884.0,190.0,2595.0,-614.0,186.0,1.0
-5488.0,-752.0,14976.0,-428.0,1667.0,-86.0,227.0,1.0
-12612.0,836.0,11092.0,-617.0,-128.0,625.0,188.0,1.0
-14436.0,2796.0,7800.0,-1428.0,-2500.0,923.0,193.0,1.0
-2660.0,2604.0,13396.0,-2182.0,-1908.0,563.0,204.0,1.0
-1076.0,552.0,15548.0,-2368.0,-2376.0,88.0,207.0,1.0
-1324.0,140.0,8744.0,-2021.0,-1976.0,-73.0,197.0,1.0
4552.0,-1348.0,18772.0,-1606.0,-1928.0,-326.0,198.0,1.0
6608.0,-1640.0,18336.0,-1189.0,-1590.0,-638.0,198.0,1.0
11352.0,-1776.0,17192.0,-612.0,-532.0,-791.0,223.0,1.0
5660.0,-1608.0,22888.0,-56.0,249.0,-804.0,197.0,1.0
6736.0,-776.0,20660.0,181.0,1725.0,-734.0,208.0,1.0
2568.0,-1440.0,25024.0,210.0,2527.0,-614.0,195.0,1.0
-7876.0,-568.0,15824.0,-392.0,1744.0,-130.0,233.0,1.0
-11896.0,212.0,11712.0,-597.0,61.0,578.0,196.0,1.0
-14704.0,3204.0,7344.0,-1135.0,-2048.0,879.0,203.0,1.0
-3344.0,2904.0,12932.0,-1987.0,-2248.0,760.0,193.0,1.0
-336.0,632.0,14768.0,-2447.0,-2335.0,183.0,206.0,1.0
576.0,-1436.0,9100.0,-1970.0,-1964.0,-115.0,208.0,1.0
8756.0,-2188.0,16832.0,-1405.0,-1897.0,-560.0,190.0,1.0
10604.0,-2868.0,20684.0,-574.0,-445.0,-780.0,227.0,1.0
2388.0,-3188.0,26964.0,-22.0,402.0,-842.0,195.0,1.0
5516.0,-1732.0,23200.0,344.0,2281.0,-705.0,195.0,1.0
1180.0,140.0,21620.0,-247.0,2317.0,-345.0,208.0,1.0
-7252.0,-980.0,14080.0,-556.0,598.0,399.0,195.0,1.0
-14080.0,2348.0,10104.0,-1049.0,-1923.0,865.0,201.0,1.0
-5136.0,2268.0,12660.0,-2135.0,-2157.0,678.0,198.0,1.0
-956.0,84.0,14260.0,-2333.0,-2378.0,175.0,201.0,1.0
-1668.0,-852.0,8800.0,-1882.0,-1906.0,-176.0,224.0,1.0
6336.0,-1840.0,18512.0,-1398.0,-1954.0,-571.0,191.0,1.0
11984.0,-2660.0,18516.0,-583.0,-303.0,-825.0,212.0,1.0
3296.0,-3128.0,26952.0,86.0,906.0,-779.0,214.0,1.0
-496.0,-2280.0,27404.0,284.0,2508.0,-622.0,182.0,1.0
-240.0,156.0,20836.0,-433.0,1753.0,-105.0,229.0,1.0
-8956.0,-1072.0,12852.0,-663.0,-612.0,691.0,192.0,1.0
-10088.0,3612.0,8980.0,-1454.0,-2577.0,964.0,190.0,1.0
-2848.0,2992.0,13092.0,-2449.0,-1881.0,477.0,230.0,1.0
-584.0,1524.0,13076.0,-2192.0,-2378.0,-40.0,194.0,1.0
4492.0,-1440.0,18488.0,-1658.0,-1952.0,-350.0,187.0,1.0
9752.0,-1956.0,16712.0,-913.0,-968.0,-720.0,196.0,1.0
10556.0,-2932.0,20712.0,-267.0,-190.0,-814.0,199.0,1.0
5892.0,-1156.0,21852.0,166.0,1526.0,-772.0,203.0,1.0
564.0,-1684.0,26752.0,166.0,2533.0,-568.0,188.0,1.0
384.0,-716.0,25360.0,-462.0,1511.0,-46.0,225.0,1.0
-14740.0,2844.0,8032.0,-724.0,-543.0,675.0,191.0,1.0
-13560.0,3608.0,7920.0,-1485.0,-2513.0,930.0,188.0,1.0
-6348.0,2020.0,12000.0,-2349.0,-1811.0,511.0,227.0,1.0
4824.0,-724.0,9428.0,-2262.0,-2495.0,-8.0,193.0,1.0
5108.0,-620.0,13284.0,-1618.0,-1888.0,-319.0,195.0,1.0
5996.0,-1664.0,18672.0,-1013.0,-1130.0,-739.0,208.0,1.0
3132.0,-1552.0,25024.0,-225.0,-84.0,-831.0,196.0,1.0
6460.0,-1328.0,21412.0,260.0,1971.0,-745.0,208.0,1.0
-456.0,-2344.0,27464.0,-162.0,2380.0,-429.0,195.0,1.0
-684.0,-8.0,20312.0,-503.0,855.0,311.0,199.0,1.0
-13352.0,4116.0,9656.0,-834.0,-1511.0,818.0,215.0,1.0
-10008.0,3540.0,8864.0,-1820.0,-2370.0,796.0,193.0,1.0
-3404.0,2996.0,13304.0,-2419.0,-2264.0,256.0,213.0,1.0
5844.0,-416.0,9088.0,-1925.0,-1992.0,-106.0,203.0,1.0
4104.0,-1924.0,17172.0,-1477.0,-2029.0,-453.0,187.0,1.0
6932.0,-1752.0,18272.0,-882.0,-786.0,-709.0,228.0,1.0
2500.0,-1716.0,25988.0,-183.0,-139.0,-795.0,200.0,1.0
6756.0,-1244.0,21256.0,108.0,1406.0,-792.0,195.0,1.0
4536.0,-1572.0,22452.0,158.0,2546.0,-589.0,192.0,1.0
-5960.0,-636.0,15096.0,-412.0,1604.0,-71.0,231.0,1.0
-11600.0,256.0,12008.0,-602.0,133.0,544.0,193.0,1.0
-14552.0,3244.0,6680.0,-1131.0,-2085.0,898.0,206.0,1.0
-3372.0,2892.0,13072.0,-1967.0,-2254.0,698.0,194.0,1.0
-180.0,672.0,14388.0,-2411.0,-2371.0,213.0,202.0,1.0
-136.0,-1476.0,8728.0,-2015.0,-1979.0,-97.0,208.0,1.0
7012.0,-2068.0,18200.0,-1425.0,-1967.0,-499.0,188.0,1.0
11776.0,-2344.0,18268.0,-714.0,-540.0,-757.0,231.0,1.0
5104.0,-2940.0,26324.0,-115.0,-8.0,-823.0,188.0,1.0
3080.0,-1544.0,25696.0,200.0,1748.0,-754.0,211.0,1.0
340.0,-2480.0,26644.0,101.0,2633.0,-569.0,190.0,1.0
140.0,48.0,20924.0,-369.0,1688.0,-119.0,227.0,1.0
-7724.0,-692.0,15912.0,-604.0,182.0,557.0,195.0,1.0
-13900.0,3948.0,9768.0,-1078.0,-1889.0,885.0,204.0,1.0
-9108.0,3152.0,8620.0,-1839.0,-2336.0,766.0,196.0,1.0
-3768.0,2588.0,12828.0,-2391.0,-2043.0,292.0,224.0,1.0
5240.0,-696.0,9520.0,-2145.0,-2269.0,-83.0,195.0,1.0
5408.0,-160.0,12520.0,-1606.0,-1865.0,-366.0,191.0,1.0
4576.0,-1172.0,19852.0,-1002.0,-1116.0,-744.0,213.0,1.0
1768.0,-2032.0,26460.0,-180.0,-116.0,-807.0,199.0,1.0
7168.0,-1196.0,21268.0,232.0,1749.0,-757.0,209.0,1.0
1332.0,-1360.0,26068.0,-51.0,2478.0,-500.0,192.0,1.0
-11356.0,-636.0,13068.0,-464.0,1197.0,95.0,207.0,1.0
-14248.0,3192.0,7660.0,-722.0,-703.0,737.0,198.0,1.0
-13044.0,3844.0,9892.0,-1514.0,-2515.0,884.0,192.0,1.0
-2000.0,400.0,14556.0,-2291.0,-1883.0,560.0,201.0,1.0
-2720.0,908.0,11196.0,-2325.0,-2518.0,82.0,199.0,1.0
4056.0,-880.0,9220.0,-1857.0,-1821.0,-167.0,182.0,1.0
5416.0,372.0,9628.0,-1451.0,-2005.0,-487.0,189.0,1.0
11040.0,-2676.0,19884.0,-799.0,-602.0,-739.0,232.0,1.0
3388.0,-2864.0,26988.0,-156.0,-102.0,-804.0,191.0,1.0
3704.0,-1632.0,24812.0,233.0,1949.0,-773.0,205.0,1.0
604.0,-1756.0,26652.0,-107.0,2400.0,-468.0,190.0,1.0
-2392.0,-464.0,17432.0,-447.0,1225.0,41.0,214.0,1.0
-9356.0,-1028.0,13432.0,-669.0,-374.0,643.0,193.0,1.0
-13120.0,3240.0,8248.0,-1276.0,-2327.0,948.0,194.0,1.0
-5972.0,2256.0,10156.0,-2051.0,-2110.0,666.0,198.0,1.0
-4152.0,2300.0,14504.0,-2330.0,-2384.0,187.0,206.0,1.0
5536.0,-828.0,8468.0,-2015.0,-1874.0,-113.0,197.0,1.0
4356.0,12.0,11676.0,-1558.0,-2076.0,-362.0,193.0,1.0
4528.0,-1680.0,18120.0,-1157.0,-1496.0,-610.0,196.0,1.0
5280.0,-2536.0,26064.0,-549.0,-536.0,-773.0,221.0,1.0
1936.0,-2184.0,27740.0,-131.0,306.0,-795.0,190.0,1.0
4688.0,-1668.0,23912.0,126.0,1572.0,-769.0,209.0,1.0
1068.0,-2436.0,26080.0,171.0,2537.0,-598.0,193.0,1.0
976.0,-760.0,23836.0,-337.0,1625.0,-224.0,210.0,1.0
-3700.0,-272.0,19752.0,-525.0,747.0,239.0,207.0,1.0
-13772.0,2840.0,8204.0,-713.0,-615.0,672.0,191.0,1.0
-14436.0,3772.0,11752.0,-1206.0,-2125.0,860.0,207.0,1.0
-12012.0,3252.0,7504.0,-1860.0,-2247.0,742.0,192.0,1.0
-820.0,948.0,14044.0,-2389.0,-2079.0,311.0,221.0,1.0
684.0,-1136.0,6936.0,-2232.0,-2285.0,-11.0,205.0,1.0
5616.0,-840.0,8044.0,-1675.0,-1625.0,-211.0,213.0,1.0
4872.0,244.0,9768.0,-1417.0,-1982.0,-510.0,192.0,1.0
11744.0,-1908.0,17472.0,-917.0,-1039.0,-709.0,221.0,1.0
8404.0,-2644.0,22588.0,-377.0,-399.0,-792.0,209.0,1.0
4556.0,-2268.0,27200.0,-93.0,425.0,-811.0,199.0,1.0
3328.0,-1396.0,24092.0,185.0,1722.0,-748.0,214.0,1.0
1076.0,-1304.0,26220.0,113.0,2642.0,-544.0,193.0,1.0
1080.0,-2228.0,26036.0,-455.0,1559.0,-94.0,232.0,1.0
-12000.0,2008.0,8664.0,-591.0,295.0,505.0,193.0,1.0
-13988.0,3080.0,6512.0,-942.0,-1657.0,878.0,194.0,1.0
-13556.0,4044.0,10280.0,-1694.0,-2390.0,827.0,194.0,1.0
-2016.0,-180.0,15220.0,-2354.0,-1875.0,411.0,237.0,1.0
-2172.0,532.0,10228.0,-2221.0,-2407.0,-4.0,193.0,1.0
4856.0,-592.0,8420.0,-1750.0,-1843.0,-260.0,209.0,1.0
9980.0,-1896.0,16868.0,-1209.0,-1682.0,-587.0,195.0,1.0
10576.0,-2972.0,20540.0,-479.0,-472.0,-814.0,218.0,1.0
2756.0,-3044.0,27528.0,62.0,873.0,-824.0,199.0,1.0
444.0,-1428.0,26996.0,332.0,2340.0,-686.0,188.0,1.0
768.0,-1108.0,26352.0,-273.0,2253.0,-370.0,201.0,1.0
-3316.0,-624.0,16168.0,-509.0,872.0,263.0,199.0,1.0
-11480.0,-272.0,12716.0,-850.0,-1428.0,855.0,213.0,1.0
-9716.0,3428.0,9956.0,-1755.0,-2481.0,813.0,193.0,1.0
-3120.0,2756.0,13216.0,-2365.0,-2082.0,318.0,229.0,1.0
6232.0,-528.0,7996.0,-2119.0,-2155.0,-83.0,193.0,1.0
3980.0,-1608.0,15832.0,-1593.0,-1950.0,-337.0,195.0,1.0
5968.0,-1500.0,18716.0,-1009.0,-1140.0,-696.0,211.0,1.0
2388.0,-1656.0,26012.0,-230.0,-248.0,-827.0,203.0,1.0
7280.0,-1184.0,20780.0,243.0,1731.0,-749.0,204.0,1.0
2240.0,-1392.0,25284.0,140.0,2533.0,-598.0,189.0,1.0
-11268.0,-368.0,12860.0,-460.0,1206.0,130.0,206.0,1.0
-14680.0,3404.0,7108.0,-930.0,-1607.0,874.0,214.0,1.0
-13500.0,3792.0,8136.0,-1810.0,-2575.0,842.0,192.0,1.0
-1968.0,988.0,11436.0,-2452.0,-2138.0,301.0,208.0,1.0
5192.0,-608.0,9612.0,-1944.0,-2032.0,-158.0,221.0,1.0
4824.0,-1916.0,15664.0,-1244.0,-1629.0,-616.0,192.0,1.0
2996.0,-3100.0,27220.0,-327.0,-230.0,-794.0,209.0,1.0
6092.0,-1488.0,23076.0,108.0,1174.0,-796.0,222.0,1.0
4452.0,-1432.0,23072.0,165.0,2578.0,-590.0,191.0,1.0
-8796.0,-1000.0,14148.0,-449.0,1296.0,33.0,223.0,1.0
-13896.0,2204.0,10096.0,-685.0,-640.0,704.0,190.0,1.0
-13776.0,2728.0,8288.0,-1455.0,-2551.0,889.0,193.0,1.0
-2816.0,2100.0,13672.0,-2271.0,-1822.0,533.0,195.0,1.0
-1020.0,708.0,15252.0,-2378.0,-2453.0,87.0,205.0,1.0
-464.0,-936.0,8004.0,-1963.0,-1906.0,-113.0,208.0,1.0
4524.0,-1196.0,19512.0,-1583.0,-2018.0,-415.0,189.0,1.0
10784.0,-1636.0,16576.0,-877.0,-820.0,-709.0,203.0,1.0
10384.0,-2768.0,21020.0,-269.0,-235.0,-818.0,201.0,1.0
5876.0,-1072.0,21412.0,166.0,1539.0,-784.0,205.0,1.0
264.0,-1544.0,27080.0,88.0,2539.0,-568.0,192.0,1.0
1076.0,-1200.0,25588.0,-417.0,1657.0,-49.0,232.0,1.0
-14868.0,2808.0,7340.0,-633.0,-61.0,590.0,190.0,1.0
-13676.0,4316.0,10064.0,-1231.0,-2260.0,919.0,203.0,1.0
-10608.0,3352.0,9180.0,-2220.0,-1979.0,612.0,194.0,1.0
-1524.0,-1052.0,8964.0,-2334.0,-2449.0,67.0,203.0,1.0
5488.0,-704.0,9020.0,-1925.0,-1939.0,-158.0,230.0,1.0
4612.0,-960.0,14040.0,-1445.0,-2016.0,-489.0,190.0,1.0
6796.0,-2644.0,25272.0,-746.0,-611.0,-760.0,233.0,1.0
1484.0,-2100.0,26740.0,-57.0,162.0,-797.0,195.0,1.0
7168.0,-1344.0,21316.0,316.0,2226.0,-734.0,200.0,1.0
2600.0,-1436.0,24836.0,-67.0,2457.0,-494.0,194.0,1.0
-9704.0,-880.0,13200.0,-515.0,884.0,262.0,201.0,1.0
-14664.0,3372.0,8432.0,-901.0,-1537.0,796.0,204.0,1.0
-13280.0,4420.0,9844.0,-1675.0,-2608.0,854.0,194.0,1.0
-640.0,468.0,14940.0,-2411.0,-2063.0,285.0,229.0,1.0
-524.0,-1296.0,8196.0,-2140.0,-2153.0,-15.0,192.0,1.0
5636.0,-868.0,8480.0,-1604.0,-1949.0,-380.0,195.0,1.0
12300.0,-1956.0,17248.0,-1145.0,-1455.0,-640.0,200.0,1.0
7420.0,-2652.0,25088.0,-313.0,-339.0,-818.0,205.0,1.0
1440.0,-2340.0,27604.0,3.0,763.0,-759.0,202.0,1.0
-264.0,-1876.0,27272.0,297.0,2279.0,-700.0,185.0,1.0
1116.0,-1172.0,26132.0,-134.0,2380.0,-363.0,197.0,1.0
-4308.0,-268.0,17600.0,-475.0,833.0,241.0,203.0,1.0
-10328.0,-940.0,13500.0,-743.0,-1016.0,770.0,195.0,1.0
-11680.0,3352.0,8684.0,-1581.0,-2475.0,872.0,189.0,1.0
-4752.0,1896.0,12204.0,-2387.0,-1857.0,429.0,230.0,1.0
5284.0,-728.0,9100.0,-2288.0,-2396.0,-29.0,194.0,1.0
5232.0,264.0,10996.0,-1741.0,-1867.0,-281.0,205.0,1.0
4676.0,-1208.0,19892.0,-1161.0,-1482.0,-630.0,196.0,1.0
1628.0,-2424.0,27348.0,-362.0,-336.0,-784.0,207.0,1.0
6908.0,-1460.0,21624.0,68.0,1032.0,-816.0,206.0,1.0
4200.0,-1572.0,23272.0,274.0,2528.0,-651.0,190.0,1.0
-644.0,-2572.0,27192.0,-393.0,1902.0,-151.0,234.0,1.0
-13756.0,2596.0,9628.0,-600.0,-201.0,627.0,188.0,1.0
-13208.0,3356.0,10088.0,-1319.0,-2329.0,913.0,193.0,1.0
-1532.0,176.0,14172.0,-2313.0,-1834.0,540.0,186.0,1.0
-2284.0,-76.0,9244.0,-2337.0,-2526.0,62.0,198.0,1.0
5612.0,-708.0,8916.0,-1827.0,-1766.0,-207.0,196.0,1.0
4712.0,-700.0,13140.0,-1396.0,-1906.0,-552.0,184.0,1.0
6228.0,-2540.0,25472.0,-621.0,-455.0,-791.0,223.0,1.0
2860.0,-1564.0,25588.0,-24.0,471.0,-814.0,195.0,1.0
7152.0,-1032.0,20460.0,285.0,2450.0,-672.0,189.0,1.0
-3272.0,-568.0,15056.0,-307.0,2058.0,-248.0,226.0,1.0
-12496.0,772.0,11972.0,-580.0,42.0,627.0,190.0,1.0
-13832.0,2836.0,8648.0,-1345.0,-2330.0,917.0,199.0,1.0
-1032.0,604.0,13232.0,-2258.0,-1948.0,541.0,192.0,1.0
-1960.0,-856.0,9196.0,-2331.0,-2485.0,66.0,195.0,1.0
5972.0,-464.0,8796.0,-1601.0,-1873.0,-322.0,198.0,1.0
4276.0,-1852.0,18692.0,-1108.0,-1215.0,-677.0,200.0,1.0
2356.0,-2900.0,26968.0,-205.0,-168.0,-784.0,198.0,1.0
6548.0,-1392.0,21864.0,174.0,1628.0,-771.0,209.0,1.0
3624.0,-1540.0,23552.0,-21.0,2473.0,-499.0,187.0,1.0
-8632.0,-736.0,14484.0,-438.0,1336.0,31.0,211.0,1.0
-12688.0,2084.0,10004.0,-692.0,-380.0,661.0,191.0,1.0
-14280.0,2776.0,8320.0,-1443.0,-2448.0,853.0,188.0,1.0
-3596.0,2068.0,14496.0,-2242.0,-1847.0,533.0,220.0,1.0
-828.0,680.0,14612.0,-2343.0,-2420.0,68.0,198.0,1.0
1000.0,-1360.0,7824.0,-1899.0,-1846.0,-162.0,213.0,1.0
7356.0,-1800.0,18256.0,-1362.0,-1914.0,-551.0,190.0,1.0
11920.0,-2068.0,17704.0,-688.0,-557.0,-752.0,227.0,1.0
5548.0,-2684.0,25824.0,-34.0,433.0,-809.0,194.0,1.0
2056.0,-1460.0,25608.0,315.0,2232.0,-723.0,193.0,1.0
616.0,-2288.0,26312.0,-237.0,2240.0,-323.0,195.0,1.0
-1120.0,-120.0,19196.0,-523.0,843.0,263.0,203.0,1.0
-12980.0,3116.0,9656.0,-797.0,-1119.0,773.0,200.0,1.0
-12504.0,3276.0,7692.0,-1627.0,-2416.0,846.0,191.0,1.0
-4688.0,1648.0,9968.0,-2321.0,-1864.0,414.0,228.0,1.0
4080.0,-924.0,8072.0,-2181.0,-2347.0,-46.0,193.0,1.0
5684.0,28.0,9064.0,-1694.0,-1816.0,-277.0,207.0,1.0
4248.0,-2004.0,17540.0,-1318.0,-1812.0,-609.0,191.0,1.0
4088.0,-2656.0,27396.0,-645.0,-534.0,-768.0,228.0,1.0
3136.0,-1452.0,25884.0,-104.0,110.0,-819.0,195.0,1.0
6864.0,-1172.0,21204.0,201.0,1829.0,-749.0,208.0,1.0
5120.0,-1092.0,21980.0,164.0,2668.0,-573.0,191.0,1.0
-4456.0,-200.0,20320.0,-364.0,1547.0,-119.0,229.0,1.0
-7548.0,-796.0,14788.0,-532.0,709.0,350.0,200.0,1.0
-9704.0,128.0,10640.0,-772.0,-883.0,758.0,200.0,1.0
-10124.0,3084.0,6552.0,-1314.0,-2271.0,890.0,191.0,1.0
-6056.0,2016.0,8936.0,-2058.0,-2007.0,649.0,194.0,1.0
-4376.0,1676.0,13780.0,-2359.0,-2027.0,285.0,226.0,1.0
4868.0,-1008.0,7932.0,-2215.0,-2240.0,-69.0,192.0,1.0
5452.0,-320.0,8788.0,-1708.0,-1717.0,-268.0,206.0,1.0
4592.0,16.0,11712.0,-1371.0,-1955.0,-540.0,188.0,1.0
10496.0,-2188.0,19252.0,-1002.0,-1201.0,-689.0,204.0,1.0
6588.0,-2012.0,25336.0,-369.0,-315.0,-774.0,204.0,1.0
3436.0,-2572.0,28172.0,-131.0,428.0,-821.0,200.0,1.0
3640.0,-1308.0,23928.0,178.0,1891.0,-716.0,211.0,1.0
2104.0,-1160.0,25800.0,176.0,2604.0,-598.0,190.0,1.0
248.0,-2240.0,26556.0,-280.0,1832.0,-236.0,213.0,1.0
-9096.0,-300.0,11076.0,-405.0,879.0,93.0,211.0,1.0
-11152.0,1812.0,8908.0,-575.0,256.0,594.0,196.0,1.0
-13656.0,3976.0,6796.0,-940.0,-1599.0,845.0,214.0,1.0
-14292.0,2956.0,10536.0,-1665.0,-2258.0,774.0,188.0,1.0
-4332.0,340.0,15272.0,-2253.0,-1953.0,349.0,230.0,1.0
-88.0,260.0,14416.0,-2261.0,-2397.0,28.0,198.0,1.0
704.0,80.0,8380.0,-1864.0,-1695.0,-194.0,207.0,1.0
4772.0,-1404.0,19052.0,-1544.0,-1836.0,-435.0,195.0,1.0
5176.0,-1496.0,20060.0,-1104.0,-1454.0,-650.0,196.0,1.0
8604.0,-1676.0,17816.0,-585.0,-576.0,-758.0,231.0,1.0
2696.0,-1392.0,25760.0,-227.0,-76.0,-825.0,205.0,1.0
5396.0,-1000.0,21488.0,-29.0,944.0,-777.0,207.0,1.0
6100.0,-652.0,20172.0,145.0,2031.0,-688.0,214.0,1.0
-364.0,-1196.0,24812.0,69.0,2466.0,-503.0,193.0,1.0
892.0,-908.0,22604.0,-183.0,2021.0,-334.0,194.0,1.0
980.0,-952.0,22496.0,-256.0,1431.0,-161.0,185.0,1.0
908.0,-1004.0,22408.0,-344.0,948.0,21.0,238.0,1.0
1032.0,-1276.0,22844.0,-335.0,891.0,125.0,230.0,1.0
-7992.0,868.0,9776.0,-438.0,845.0,322.0,206.0,1.0
-7984.0,540.0,10152.0,-557.0,458.0,496.0,199.0,1.0
-7792.0,360.0,11128.0,-633.0,94.0,677.0,194.0,1.0
-7944.0,-8.0,12012.0,-771.0,-663.0,822.0,192.0,1.0
-16928.0,3424.0,10564.0,-806.0,-1012.0,854.0,198.0,1.0
-15932.0,3444.0,10656.0,-1244.0,-2056.0,951.0,203.0,1.0
-15520.0,3348.0,10476.0,-1705.0,-2217.0,790.0,192.0,1.0
-5976.0,648.0,17048.0,-2107.0,-2048.0,459.0,203.0,1.0
-4956.0,-404.0,16592.0,-2408.0,-1802.0,90.0,225.0,1.0
-2468.0,-848.0,15316.0,-2364.0,-1698.0,-92.0,194.0,1.0
3572.0,-1476.0,8916.0,-1939.0,-1587.0,-183.0,196.0,1.0
3688.0,-356.0,10920.0,-1458.0,-2205.0,-359.0,204.0,1.0
3296.0,-288.0,12936.0,-1193.0,-2270.0,-507.0,191.0,1.0
10976.0,-1492.0,18276.0,-914.0,-889.0,-669.0,226.0,1.0
10712.0,-1072.0,20208.0,-543.0,-371.0,-783.0,218.0,1.0
6636.0,-716.0,20436.0,-269.0,231.0,-806.0,195.0,1.0
6148.0,-376.0,20692.0,-86.0,1082.0,-777.0,202.0,1.0
4488.0,-340.0,21908.0,179.0,2161.0,-688.0,203.0,1.0
1796.0,-1300.0,24488.0,16.0,2513.0,-549.0,189.0,1.0
-5176.0,-852.0,18500.0,-261.0,1555.0,-213.0,192.0,1.0
-6608.0,-400.0,13664.0,-448.0,870.0,260.0,206.0,1.0
-8200.0,576.0,9092.0,-631.0,-202.0,748.0,187.0,1.0
-11492.0,3628.0,8276.0,-998.0,-1770.0,908.0,181.0,1.0
-6656.0,3080.0,8052.0,-1580.0,-2508.0,882.0,189.0,1.0
-6712.0,1136.0,11680.0,-2088.0,-2068.0,494.0,197.0,1.0
-6024.0,1204.0,16280.0,-2425.0,-1817.0,47.0,217.0,1.0
4588.0,-1944.0,7088.0,-2237.0,-1584.0,-187.0,193.0,1.0
3952.0,-1952.0,7884.0,-1784.0,-1603.0,-193.0,187.0,1.0
3740.0,-452.0,10420.0,-1315.0,-2408.0,-493.0,192.0,1.0
9424.0,-1636.0,17752.0,-953.0,-1261.0,-648.0,199.0,1.0
10936.0,-1148.0,19276.0,-609.0,-368.0,-812.0,223.0,1.0
8620.0,-764.0,24004.0,-269.0,66.0,-777.0,191.0,1.0
5328.0,-200.0,21352.0,-83.0,1083.0,-777.0,208.0,1.0
2520.0,-932.0,23680.0,143.0,2147.0,-4097.0,203.0,1.0
768.0,-1704.0,26004.0,-49.0,2390.0,-485.0,191.0,1.0
-5908.0,-760.0,19488.0,-278.0,1522.0,-250.0,178.0,1.0
-6600.0,-792.0,16992.0,-360.0,983.0,-13.0,231.0,1.0
-7296.0,-480.0,14692.0,-498.0,696.0,403.0,205.0,1.0
-7624.0,-248.0,12212.0,-664.0,-51.0,694.0,191.0,1.0
-15276.0,3852.0,10624.0,-914.0,-1442.0,897.0,202.0,1.0
-13056.0,3372.0,9428.0,-1391.0,-2355.0,935.0,198.0,1.0
-10896.0,2896.0,8196.0,-1800.0,-2267.0,755.0,193.0,1.0
-2256.0,-864.0,15176.0,-2189.0,-1915.0,360.0,201.0,1.0
404.0,-296.0,14116.0,-2422.0,-1766.0,-9.0,211.0,1.0
3856.0,140.0,11180.0,-2324.0,-1638.0,-104.0,202.0,1.0
3776.0,4.0,11868.0,-1903.0,-1528.0,-209.0,204.0,1.0
2940.0,-564.0,14160.0,-1563.0,-1994.0,-324.0,209.0,1.0
2864.0,-1024.0,16224.0,-1197.0,-2273.0,-528.0,192.0,1.0
9804.0,-764.0,21760.0,-902.0,-1024.0,-744.0,211.0,1.0
7976.0,-648.0,24460.0,-716.0,-476.0,-765.0,229.0,1.0
5808.0,-804.0,26756.0,-417.0,-188.0,-793.0,206.0,1.0
4308.0,-1076.0,27544.0,-165.0,713.0,-804.0,203.0,1.0
1520.0,-1256.0,24512.0,74.0,1745.0,-720.0,210.0,1.0
564.0,-2096.0,26628.0,120.0,2541.0,-605.0,193.0,1.0
-68.0,-2416.0,27164.0,-247.0,1466.0,-248.0,201.0,1.0
-7676.0,700.0,8596.0,-384.0,876.0,218.0,222.0,1.0
-11252.0,3980.0,8100.0,-608.0,423.0,554.0,195.0,1.0
-16220.0,3188.0,9108.0,-1061.0,-1786.0,936.0,218.0,1.0
-17464.0,3248.0,10788.0,-1582.0,-2437.0,878.0,193.0,1.0
-5944.0,868.0,16424.0,-2059.0,-2044.0,486.0,206.0,1.0
-4660.0,-896.0,16780.0,-2376.0,-1771.0,81.0,219.0,1.0
216.0,-432.0,14200.0,-2249.0,-1558.0,-176.0,198.0,1.0
3308.0,-136.0,12556.0,-1703.0,-1716.0,-249.0,189.0,1.0
2616.0,-968.0,15668.0,-1284.0,-2385.0,-451.0,189.0,1.0
3384.0,-1548.0,19756.0,-920.0,-1003.0,-714.0,217.0,1.0
4744.0,-1076.0,27568.0,-477.0,-231.0,-757.0,210.0,1.0
4284.0,-1648.0,25628.0,-116.0,775.0,-771.0,200.0,1.0
6180.0,-864.0,21116.0,191.0,2146.0,-694.0,207.0,1.0
-708.0,-1964.0,25288.0,-35.0,2301.0,-421.0,186.0,1.0
-3896.0,-428.0,22136.0,-310.0,1075.0,-131.0,237.0,1.0
-6512.0,-544.0,15024.0,-557.0,456.0,611.0,195.0,1.0
-13436.0,3624.0,9260.0,-1022.0,-1842.0,949.0,221.0,1.0
-6424.0,3516.0,7028.0,-1686.0,-2362.0,809.0,198.0,1.0
-6024.0,1324.0,14444.0,-2265.0,-1880.0,275.0,233.0,1.0
4212.0,-2244.0,7496.0,-2189.0,-1535.0,-154.0,191.0,1.0
3040.0,-112.0,13324.0,-1558.0,-2061.0,-340.0,201.0,1.0
2896.0,-1272.0,18776.0,-998.0,-1707.0,-655.0,201.0,1.0
5100.0,-1044.0,27364.0,-580.0,-308.0,-803.0,220.0,1.0
4464.0,-1652.0,24548.0,-173.0,377.0,-803.0,197.0,1.0
6184.0,-208.0,20992.0,197.0,2464.0,-629.0,183.0,1.0
-3552.0,-496.0,20616.0,-227.0,1936.0,-347.0,198.0,1.0
-7056.0,-212.0,12004.0,-384.0,911.0,246.0,207.0,1.0
-11764.0,3636.0,8452.0,-780.0,-774.0,856.0,196.0,1.0
-17328.0,2912.0,9752.0,-1527.0,-2546.0,933.0,190.0,1.0
-5348.0,688.0,16684.0,-2129.0,-2075.0,473.0,211.0,1.0
-68.0,-400.0,14360.0,-2390.0,-1750.0,-73.0,209.0,1.0
5024.0,-652.0,8964.0,-2103.0,-1540.0,-161.0,193.0,1.0
2632.0,-1228.0,18128.0,-1468.0,-2210.0,-370.0,203.0,1.0
4496.0,-2204.0,19792.0,-1007.0,-1590.0,-657.0,196.0,1.0
9212.0,-1328.0,17424.0,-645.0,-435.0,-791.0,216.0,1.0
5552.0,-1180.0,22564.0,-229.0,201.0,-790.0,193.0,1.0
6200.0,-92.0,20728.0,102.0,1912.0,-722.0,211.0,1.0
1548.0,-1452.0,24892.0,-44.0,2480.0,-482.0,188.0,1.0
-6700.0,-452.0,14532.0,-342.0,1144.0,-89.0,234.0,1.0
-8976.0,1340.0,8516.0,-531.0,600.0,506.0,195.0,1.0
-14732.0,4312.0,8708.0,-924.0,-1485.0,882.0,209.0,1.0
-16892.0,3496.0,10568.0,-1588.0,-2458.0,847.0,188.0,1.0
-4844.0,-308.0,16752.0,-2201.0,-1985.0,372.0,216.0,1.0
1920.0,16.0,13156.0,-2382.0,-1751.0,-104.0,202.0,1.0
5016.0,-1628.0,6716.0,-1809.0,-1498.0,-219.0,219.0,1.0
3636.0,-1712.0,19552.0,-1256.0,-2369.0,-500.0,193.0,1.0
7956.0,-1536.0,17684.0,-818.0,-655.0,-730.0,226.0,1.0
5472.0,-1224.0,22788.0,-305.0,-67.0,-800.0,199.0,1.0
6032.0,-148.0,20988.0,-21.0,1290.0,-770.0,218.0,1.0
1088.0,-1540.0,25480.0,117.0,2524.0,-582.0,190.0,1.0
-368.0,-2440.0,27820.0,-219.0,1852.0,-296.0,203.0,1.0
-7892.0,188.0,10872.0,-420.0,777.0,239.0,212.0,1.0
-9884.0,2868.0,8044.0,-614.0,63.0,701.0,191.0,1.0
-14596.0,4324.0,8308.0,-950.0,-1515.0,922.0,223.0,1.0
-17880.0,2760.0,10520.0,-1538.0,-2391.0,887.0,190.0,1.0
-6068.0,680.0,14864.0,-2085.0,-2003.0,480.0,203.0,1.0
-5996.0,212.0,17004.0,-2353.0,-1819.0,154.0,237.0,1.0
4900.0,-2332.0,7252.0,-2362.0,-1915.0,-107.0,208.0,1.0
3620.0,-1732.0,7860.0,-1963.0,-1696.0,-181.0,196.0,1.0
3048.0,-1884.0,8856.0,-1509.0,-2105.0,-358.0,207.0,1.0
4748.0,-1988.0,20168.0,-1267.0,-2310.0,-525.0,192.0,1.0
8220.0,-1184.0,18216.0,-921.0,-880.0,-729.0,208.0,1.0
10736.0,-1172.0,18144.0,-628.0,-381.0,-790.0,220.0,1.0
5752.0,-956.0,21684.0,-297.0,231.0,-787.0,191.0,1.0
4364.0,-256.0,21588.0,147.0,2174.0,-683.0,202.0,1.0
1088.0,-1752.0,25272.0,-124.0,2128.0,-346.0,196.0,1.0
-6280.0,-468.0,16120.0,-312.0,978.0,-58.0,232.0,1.0
-7608.0,512.0,9748.0,-577.0,667.0,475.0,196.0,1.0
-11220.0,3940.0,8592.0,-919.0,-1197.0,909.0,195.0,1.0
-6168.0,2264.0,7860.0,-1598.0,-2452.0,918.0,190.0,1.0
-6424.0,964.0,13852.0,-1990.0,-2182.0,588.0,193.0,1.0
-5348.0,-268.0,17092.0,-2399.0,-1800.0,114.0,227.0,1.0
4356.0,-2188.0,7276.0,-2211.0,-1601.0,-166.0,197.0,1.0
4028.0,-1140.0,9556.0,-1702.0,-1625.0,-247.0,219.0,1.0
3628.0,-104.0,11956.0,-1383.0,-2332.0,-383.0,193.0,1.0
9512.0,-1308.0,18020.0,-1062.0,-1907.0,-604.0,183.0,1.0
9952.0,-1216.0,19204.0,-879.0,-740.0,-738.0,218.0,1.0
10300.0,-872.0,20272.0,-511.0,-267.0,-808.0,213.0,1.0
6052.0,-816.0,20604.0,-279.0,240.0,-819.0,193.0,1.0
6168.0,-392.0,20316.0,-73.0,988.0,-778.0,198.0,1.0
4812.0,-208.0,21440.0,99.0,1892.0,-704.0,209.0,1.0
3076.0,-404.0,22524.0,120.0,2439.0,-567.0,189.0,1.0
-3516.0,-196.0,23716.0,-103.0,2000.0,-339.0,193.0,1.0
-5456.0,-448.0,21496.0,-287.0,1002.0,-81.0,232.0,1.0
-6968.0,-508.0,17892.0,-434.0,785.0,268.0,207.0,1.0
-6704.0,212.0,12176.0,-666.0,202.0,707.0,193.0,1.0
-13392.0,3408.0,9536.0,-1071.0,-1761.0,932.0,192.0,1.0
-6988.0,3380.0,6568.0,-1630.0,-2357.0,860.0,190.0,1.0
-5960.0,1788.0,8056.0,-2145.0,-2023.0,447.0,197.0,1.0
6912.0,-1652.0,5460.0,-2413.0,-1694.0,-55.0,210.0,1.0
5548.0,-2180.0,5668.0,-2063.0,-1492.0,-200.0,200.0,1.0
4208.0,-1868.0,8736.0,-1435.0,-2155.0,-351.0,202.0,1.0
9196.0,-1312.0,17696.0,-1004.0,-1694.0,-647.0,191.0,1.0
10332.0,-700.0,21012.0,-680.0,-377.0,-801.0,227.0,1.0
5840.0,-688.0,26924.0,-228.0,189.0,-771.0,193.0,1.0
1340.0,-1468.0,24968.0,72.0,1569.0,-709.0,205.0,1.0
-284.0,-2340.0,27520.0,2.0,2466.0,-472.0,190.0,1.0
-276.0,-1944.0,24676.0,-226.0,1450.0,-197.0,186.0,1.0
-3708.0,-292.0,22372.0,-497.0,775.0,369.0,209.0,1.0
-16048.0,3340.0,8976.0,-713.0,-195.0,809.0,189.0,1.0
-17312.0,3184.0,11168.0,-1197.0,-2048.0,970.0,200.0,1.0
-13936.0,3484.0,10220.0,-1684.0,-2337.0,840.0,191.0,1.0
-4124.0,-1352.0,16764.0,-2230.0,-1896.0,287.0,222.0,1.0
1928.0,-372.0,13148.0,-2347.0,-1694.0,-93.0,204.0,1.0
5236.0,-608.0,9360.0,-1988.0,-1516.0,-196.0,201.0,1.0
2116.0,-776.0,15832.0,-1465.0,-2113.0,-354.0,205.0,1.0
2624.0,-932.0,18100.0,-1169.0,-2329.0,-554.0,187.0,1.0
3372.0,-1464.0,19908.0,-910.0,-989.0,-723.0,209.0,1.0
5368.0,-708.0,27144.0,-644.0,-386.0,-787.0,219.0,1.0
3908.0,-1312.0,27016.0,-237.0,215.0,-796.0,199.0,1.0
4476.0,-1552.0,24484.0,-62.0,1203.0,-775.0,211.0,1.0
-412.0,-2196.0,27368.0,138.0,2360.0,-609.0,191.0,1.0
-840.0,-2092.0,25420.0,-169.0,1719.0,-265.0,193.0,1.0
-3872.0,-244.0,22880.0,-315.0,869.0,126.0,225.0,1.0
-6540.0,-332.0,16248.0,-607.0,335.0,658.0,191.0,1.0
-15512.0,4156.0,11060.0,-1054.0,-1805.0,958.0,191.0,1.0
-8608.0,3360.0,7280.0,-1682.0,-2391.0,838.0,193.0,1.0
-5740.0,2164.0,7892.0,-2267.0,-1915.0,318.0,224.0,1.0
5744.0,-1336.0,7136.0,-2386.0,-1759.0,-114.0,206.0,1.0
5852.0,-2148.0,5388.0,-1877.0,-1524.0,-219.0,202.0,1.0
3744.0,-1908.0,20132.0,-1341.0,-2334.0,-447.0,195.0,1.0
7292.0,-1452.0,20132.0,-1341.0,-2334.0,-447.0,200.0,1.0
2544.0,-792.0,15212.0,-1175.0,-2297.0,-572.0,144.0,1.0
10116.0,-580.0,21616.0,-883.0,-749.0,-765.0,208.0,1.0
6136.0,-604.0,26756.0,-534.0,-278.0,-802.0,208.0,1.0
3272.0,-1400.0,27408.0,-178.0,395.0,-805.0,196.0,1.0
308.0,-1944.0,26944.0,119.0,2052.0,-549.0,206.0,1.0
0.0,0.0,0.0,0.0,0.0,0.0,189.0,1.0
4720.0,-92.0,21464.0,177.0,2391.0,-644.0,186.0,1.0
1604.0,-1240.0,24276.0,-27.0,2228.0,-403.0,195.0,1.0
-6116.0,-768.0,19440.0,-244.0,1060.0,-105.0,227.0,1.0
-6772.0,-128.0,14908.0,-509.0,814.0,386.0,206.0,1.0
-7536.0,200.0,10620.0,-765.0,-129.0,788.0,187.0,1.0
-12380.0,3028.0,9104.0,-1115.0,-1887.0,962.0,185.0,1.0
-7768.0,3348.0,7252.0,-1654.0,-2385.0,868.0,190.0,1.0
-5504.0,2756.0,7156.0,-2057.0,-1979.0,455.0,200.0,1.0
5144.0,-508.0,9300.0,-2343.0,-1861.0,79.0,223.0,1.0
5940.0,-1820.0,5932.0,-2321.0,-1643.0,-143.0,202.0,1.0
5744.0,-2252.0,5792.0,-1906.0,-1465.0,-199.0,203.0,1.0
2852.0,-1108.0,19372.0,-1513.0,-2109.0,-387.0,207.0,1.0
3476.0,-1552.0,19844.0,-1133.0,-2257.0,-547.0,156.0,1.0
4304.0,-2008.0,19792.0,-915.0,-978.0,-715.0,207.0,1.0
5008.0,-812.0,27768.0,-671.0,-416.0,-769.0,233.0,1.0
3780.0,-856.0,28120.0,-356.0,-126.0,-821.0,206.0,1.0
4048.0,-1156.0,26836.0,-219.0,468.0,-785.0,195.0,1.0
3940.0,-1436.0,26212.0,-96.0,1239.0,-757.0,212.0,1.0
-52.0,-1804.0,26356.0,97.0,1984.0,-659.0,202.0,1.0
-132.0,-1912.0,27168.0,101.0,2512.0,-534.0,189.0,1.0
-440.0,-2296.0,27216.0,-159.0,1930.0,-334.0,199.0,1.0
-7436.0,188.0,12216.0,-327.0,840.0,73.0,232.0,1.0
-7840.0,964.0,8828.0,-512.0,762.0,345.0,205.0,1.0
-9036.0,3020.0,7544.0,-620.0,113.0,722.0,186.0,1.0
-11460.0,4432.0,7568.0,-942.0,-1393.0,876.0,208.0,1.0
-5592.0,3296.0,7048.0,-1494.0,-2359.0,942.0,197.0,1.0
-5396.0,2012.0,7900.0,-1810.0,-2293.0,810.0,194.0,1.0
-5720.0,864.0,9504.0,-2079.0,-1941.0,441.0,212.0,1.0
5704.0,-784.0,7860.0,-2429.0,-1830.0,85.0,230.0,1.0
6404.0,-1708.0,5456.0,-2270.0,-1654.0,-105.0,206.0,1.0
5732.0,-2372.0,5148.0,-2055.0,-1511.0,-242.0,196.0,1.0
5040.0,-2016.0,6308.0,-1497.0,-2154.0,-350.0,207.0,1.0
4120.0,-1648.0,19816.0,-1197.0,-2315.0,-590.0,191.0,1.0
5924.0,-1616.0,18896.0,-926.0,-1009.0,-716.0,202.0,1.0
4648.0,-1028.0,26564.0,-650.0,-325.0,-798.0,228.0,1.0
4384.0,-1424.0,25140.0,-333.0,28.0,-833.0,205.0,1.0
4892.0,-1328.0,23136.0,-184.0,762.0,-783.0,200.0,1.0
5924.0,-808.0,20876.0,117.0,2009.0,-676.0,210.0,1.0
-328.0,-2536.0,26044.0,117.0,2404.0,-530.0,191.0,1.0
-308.0,-2512.0,25068.0,-84.0,1856.0,-302.0,189.0,1.0
-920.0,-1632.0,24656.0,-286.0,922.0,-90.0,228.0,1.0
-2080.0,-748.0,24380.0,-370.0,722.0,198.0,223.0,1.0
-9128.0,3492.0,7520.0,-583.0,600.0,510.0,199.0,1.0
-11264.0,4380.0,7828.0,-786.0,-324.0,773.0,184.0,1.0
-14432.0,4236.0,8692.0,-1058.0,-1817.0,925.0,199.0,1.0
-5680.0,1784.0,8068.0,-1582.0,-2382.0,875.0,187.0,1.0
-5972.0,596.0,10984.0,-1962.0,-2097.0,551.0,195.0,1.0
-5836.0,632.0,15164.0,-2339.0,-1832.0,147.0,234.0,1.0
5416.0,-2164.0,6080.0,-2286.0,-1631.0,-134.0,197.0,1.0
4800.0,-2160.0,7340.0,-1880.0,-1478.0,-252.0,210.0,1.0
4124.0,-652.0,10436.0,-1341.0,-2412.0,-440.0,190.0,1.0
10168.0,-1204.0,17408.0,-996.0,-1530.0,-696.0,195.0,1.0
10600.0,-748.0,20104.0,-651.0,-393.0,-815.0,226.0,1.0
7388.0,-440.0,25860.0,-284.0,227.0,-851.0,201.0,1.0
3376.0,-444.0,22488.0,-4.0,1391.0,-758.0,217.0,1.0
132.0,-2008.0,26616.0,143.0,2337.0,-601.0,188.0,1.0
-644.0,-2460.0,26948.0,-167.0,1736.0,-271.0,193.0,1.0
-1188.0,-1588.0,25024.0,-358.0,778.0,111.0,226.0,1.0
-11936.0,4344.0,8148.0,-611.0,390.0,628.0,186.0,1.0
-16984.0,2752.0,9684.0,-1185.0,-2029.0,992.0,204.0,1.0
-14016.0,4096.0,10652.0,-1767.0,-2338.0,778.0,190.0,1.0
-1808.0,-1168.0,15516.0,-2329.0,-1876.0,193.0,230.0,1.0
4544.0,-368.0,9404.0,-2190.0,-1631.0,-181.0,193.0,1.0
2924.0,-1372.0,18976.0,-1515.0,-2214.0,-358.0,201.0,1.0
4732.0,-2292.0,20288.0,-1008.0,-1817.0,-650.0,195.0,1.0
9116.0,-1188.0,19008.0,-655.0,-464.0,-777.0,221.0,1.0
5964.0,-952.0,21112.0,-170.0,385.0,-824.0,197.0,1.0
3136.0,-304.0,23664.0,66.0,1681.0,-735.0,198.0,1.0
1360.0,-1420.0,24328.0,110.0,2550.0,-516.0,188.0,1.0
204.0,-2252.0,27132.0,-221.0,1532.0,-223.0,202.0,1.0
-7728.0,116.0,12828.0,-431.0,745.0,320.0,215.0,1.0
-8232.0,1424.0,8268.0,-615.0,147.0,706.0,188.0,1.0
-11212.0,4244.0,8120.0,-1046.0,-1707.0,947.0,205.0,1.0
-5860.0,2712.0,7844.0,-1604.0,-2388.0,888.0,187.0,1.0
-6416.0,572.0,11380.0,-1972.0,-2146.0,606.0,197.0,1.0
-6164.0,372.0,16264.0,-2360.0,-1804.0,136.0,229.0,1.0
5492.0,-2224.0,5848.0,-2260.0,-1617.0,-176.0,197.0,1.0
4412.0,-2268.0,7404.0,-1775.0,-1605.0,-247.0,205.0,1.0
4096.0,-1368.0,9248.0,-1426.0,-2252.0,-412.0,193.0,1.0
7512.0,-1208.0,18256.0,-1115.0,-1969.0,-590.0,193.0,1.0
9440.0,-1160.0,17756.0,-844.0,-747.0,-737.0,219.0,1.0
10588.0,-1168.0,18296.0,-540.0,-236.0,-809.0,210.0,1.0
5516.0,-964.0,21904.0,-296.0,185.0,-800.0,197.0,1.0
6228.0,-628.0,20404.0,-141.0,893.0,-761.0,206.0,1.0
6372.0,-508.0,20192.0,139.0,2023.0,-652.0,210.0,1.0
-856.0,-2452.0,25620.0,137.0,2460.0,-490.0,188.0,1.0
-1328.0,-1704.0,25180.0,-125.0,1803.0,-322.0,181.0,1.0
-2856.0,-528.0,24588.0,-342.0,825.0,4.0,235.0,1.0
-4760.0,-288.0,22224.0,-456.0,787.0,283.0,208.0,1.0
-15756.0,3504.0,9120.0,-663.0,194.0,676.0,185.0,1.0
-17288.0,3380.0,10568.0,-1069.0,-1669.0,937.0,182.0,1.0
-12556.0,3284.0,9012.0,-1711.0,-2308.0,798.0,190.0,1.0
-708.0,-1192.0,14680.0,-2271.0,-1901.0,270.0,232.0,1.0
5312.0,-780.0,8388.0,-2268.0,-1655.0,-145.0,195.0,1.0
5712.0,-2192.0,5872.0,-1631.0,-1649.0,-298.0,194.0,1.0
6504.0,-1660.0,18604.0,-1120.0,-2203.0,-583.0,192.0,1.0
11204.0,-1176.0,18556.0,-762.0,-428.0,-769.0,230.0,1.0
7016.0,-964.0,25476.0,-198.0,383.0,-777.0,195.0,1.0
1500.0,-1668.0,24336.0,143.0,2031.0,-672.0,207.0,1.0
468.0,-2440.0,25380.0,-107.0,1902.0,-341.0,185.0,1.0
-4568.0,-360.0,25316.0,-409.0,895.0,190.0,221.0,1.0
-16496.0,3764.0,9320.0,-627.0,61.0,726.0,188.0,1.0
-15468.0,3612.0,10812.0,-1248.0,-2092.0,983.0,199.0,1.0
-8616.0,3032.0,6928.0,-1823.0,-2289.0,722.0,190.0,1.0
4152.0,-520.0,11032.0,-2337.0,-1877.0,165.0,232.0,1.0
5776.0,-2292.0,5348.0,-2195.0,-1594.0,-175.0,194.0,1.0
4776.0,-2336.0,7368.0,-1520.0,-2012.0,-347.0,204.0,1.0
7828.0,-1172.0,18124.0,-1151.0,-2138.0,-593.0,192.0,1.0
10392.0,-680.0,19980.0,-710.0,-413.0,-769.0,229.0,1.0
6824.0,-520.0,26068.0,-290.0,127.0,-812.0,196.0,1.0
2364.0,-1016.0,23308.0,-14.0,1341.0,-749.0,181.0,1.0
12.0,-2004.0,27140.0,143.0,2392.0,-560.0,188.0,1.0
-476.0,-2484.0,26160.0,-121.0,1883.0,-317.0,192.0,1.0
-1484.0,-1692.0,25084.0,-327.0,754.0,157.0,230.0,1.0
-10260.0,4008.0,7864.0,-594.0,576.0,598.0,191.0,1.0
-15656.0,3840.0,9164.0,-887.0,-1143.0,905.0,206.0,1.0
-17008.0,3312.0,10596.0,-1570.0,-2426.0,895.0,192.0,1.0
-5972.0,-240.0,17168.0,-1997.0,-2105.0,553.0,198.0,1.0
-4072.0,-1612.0,16740.0,-2370.0,-1825.0,65.0,223.0,1.0
556.0,-1048.0,13892.0,-2272.0,-1598.0,-162.0,196.0,1.0
3804.0,-660.0,11212.0,-1709.0,-1600.0,-297.0,208.0,1.0
3104.0,-376.0,14012.0,-1384.0,-2269.0,-433.0,188.0,1.0
2972.0,-892.0,16192.0,-1032.0,-1862.0,-648.0,193.0,1.0
9408.0,-340.0,22244.0,-833.0,-599.0,-797.0,228.0,1.0
7384.0,-380.0,25692.0,-482.0,-224.0,-802.0,207.0,1.0
4104.0,-664.0,27616.0,-231.0,408.0,-774.0,196.0,1.0
888.0,-1172.0,24732.0,-53.0,1337.0,-743.0,184.0,1.0
160.0,-2008.0,26756.0,160.0,2337.0,-581.0,193.0,1.0
-380.0,-2172.0,26736.0,-74.0,2087.0,-310.0,190.0,1.0
-644.0,-2524.0,25292.0,-276.0,931.0,-53.0,226.0,1.0
-8112.0,2412.0,7732.0,-465.0,770.0,370.0,205.0,1.0
-11916.0,4728.0,8072.0,-684.0,57.0,764.0,187.0,1.0
-16804.0,2960.0,9844.0,-1126.0,-1856.0,934.0,178.0,1.0
-16552.0,3416.0,11300.0,-1674.0,-2350.0,850.0,192.0,1.0
-5904.0,-356.0,17288.0,-2092.0,-1951.0,468.0,214.0,1.0
-4252.0,-1768.0,16964.0,-2360.0,-1812.0,1.0,209.0,1.0
4320.0,-2112.0,8580.0,-2115.0,-1516.0,-200.0,189.0,1.0
3404.0,-516.0,12920.0,-1672.0,-1722.0,-289.0,198.0,1.0
2672.0,-760.0,15792.0,-1254.0,-2348.0,-530.0,190.0,1.0
9812.0,-432.0,21592.0,-925.0,-1042.0,-723.0,200.0,1.0
7412.0,-304.0,25800.0,-658.0,-402.0,-792.0,225.0,1.0
4864.0,-660.0,27552.0,-348.0,-29.0,-810.0,200.0,1.0
4204.0,-1232.0,25760.0,-190.0,769.0,-777.0,196.0,1.0
-260.0,-1900.0,26868.0,100.0,1896.0,-670.0,205.0,1.0
-464.0,-2260.0,26544.0,34.0,2284.0,-385.0,189.0,1.0
-4660.0,-1800.0,27916.0,-307.0,823.0,-87.0,186.0,1.0
-2524.0,-496.0,24396.0,-406.0,702.0,266.0,220.0,1.0
-10884.0,4384.0,7856.0,-653.0,426.0,649.0,194.0,1.0
-14532.0,4360.0,8692.0,-863.0,-951.0,864.0,196.0,1.0
-16848.0,3036.0,9812.0,-1260.0,-2113.0,955.0,204.0,1.0
-6156.0,248.0,12244.0,-1827.0,-2218.0,724.0,193.0,1.0
-6472.0,4.0,16512.0,-2097.0,-1986.0,422.0,215.0,1.0
-5720.0,-1244.0,17676.0,-2373.0,-1799.0,103.0,219.0,1.0
4748.0,-2484.0,7032.0,-2237.0,-1587.0,-166.0,191.0,1.0
3752.0,-1552.0,9636.0,-1740.0,-1648.0,-287.0,187.0,1.0
3412.0,-392.0,13096.0,-1290.0,-2370.0,-521.0,190.0,1.0
10352.0,-912.0,18740.0,-910.0,-1163.0,-751.0,195.0,1.0
9068.0,-240.0,23228.0,-630.0,-290.0,-801.0,218.0,1.0
5572.0,-540.0,27040.0,-287.0,257.0,-805.0,197.0,1.0
1576.0,-1188.0,24320.0,-53.0,1450.0,-744.0,215.0,1.0
-76.0,-2032.0,27100.0,112.0,2400.0,-572.0,187.0,1.0
-1328.0,-2584.0,26388.0,-158.0,1657.0,-266.0,191.0,1.0
-2400.0,-852.0,24724.0,-377.0,674.0,228.0,227.0,1.0
-11772.0,4712.0,7824.0,-623.0,307.0,670.0,193.0,1.0
-15652.0,3548.0,9148.0,-960.0,-1245.0,969.0,198.0,1.0
-16812.0,2868.0,10428.0,-1525.0,-2278.0,919.0,191.0,1.0
-6104.0,92.0,15112.0,-1885.0,-2119.0,642.0,192.0,1.0
-5916.0,-480.0,17432.0,-2176.0,-1947.0,362.0,206.0,1.0
-5040.0,-1748.0,17392.0,-2396.0,-1788.0,-12.0,211.0,1.0
4648.0,-2424.0,7196.0,-2095.0,-1489.0,-170.0,190.0,1.0
3988.0,-2096.0,8900.0,-1640.0,-1705.0,-319.0,220.0,1.0
3816.0,-964.0,11192.0,-1343.0,-2346.0,-488.0,191.0,1.0
9136.0,-1008.0,18024.0,-1026.0,-1613.0,-700.0,197.0,1.0
10308.0,-804.0,19084.0,-755.0,-455.0,-789.0,232.0,1.0
9172.0,-192.0,22964.0,-349.0,40.0,-816.0,200.0,1.0
5532.0,-40.0,20576.0,-218.0,623.0,-796.0,193.0,1.0
3024.0,-320.0,22560.0,56.0,1681.0,-754.0,205.0,1.0
988.0,-1468.0,24976.0,136.0,2439.0,-547.0,188.0,1.0
-316.0,-2048.0,27176.0,-100.0,1683.0,-275.0,194.0,1.0
-7236.0,520.0,13328.0,-351.0,740.0,150.0,229.0,1.0
-7836.0,1332.0,9320.0,-605.0,569.0,595.0,199.0,1.0
-10248.0,4012.0,8368.0,-782.0,-430.0,827.0,189.0,1.0
-15112.0,4240.0,9128.0,-1378.0,-2215.0,970.0,201.0,1.0
-6308.0,292.0,10628.0,-1834.0,-2185.0,704.0,191.0,1.0
-5952.0,-256.0,16372.0,-2287.0,-1838.0,199.0,230.0,1.0
-4084.0,-1868.0,16692.0,-2294.0,-1695.0,-103.0,196.0,1.0
3960.0,-1696.0,9456.0,-1696.0,-1637.0,-276.0,210.0,1.0
3752.0,-396.0,13112.0,-1322.0,-2338.0,-500.0,188.0,1.0
10276.0,-876.0,18088.0,-1024.0,-1638.0,-682.0,196.0,1.0
10156.0,-440.0,20208.0,-776.0,-540.0,-768.0,233.0,1.0
9172.0,-192.0,22896.0,-448.0,-127.0,-784.0,205.0,1.0
5708.0,-308.0,20752.0,-240.0,449.0,-798.0,195.0,1.0
4856.0,-172.0,21056.0,-46.0,1369.0,-768.0,217.0,1.0
2704.0,-780.0,22912.0,157.0,2347.0,-591.0,195.0,1.0
1088.0,-1696.0,25176.0,-47.0,2098.0,-368.0,178.0,1.0
-6936.0,28.0,17952.0,-243.0,774.0,27.0,220.0,1.0
-6664.0,676.0,12052.0,-383.0,784.0,308.0,219.0,1.0
-7672.0,1840.0,8328.0,-701.0,226.0,715.0,185.0,1.0
-11736.0,4576.0,8592.0,-1084.0,-1726.0,929.0,222.0,1.0
-5292.0,1812.0,7720.0,-1655.0,-2263.0,849.0,190.0,1.0
-6268.0,300.0,12940.0,-2096.0,-1987.0,430.0,198.0,1.0
-5916.0,-1200.0,17708.0,-2332.0,-1835.0,15.0,209.0,1.0
5024.0,-2508.0,7000.0,-2089.0,-1485.0,-209.0,190.0,1.0
3600.0,-1140.0,11056.0,-1525.0,-1959.0,-375.0,210.0,1.0
2992.0,-612.0,14888.0,-1132.0,-2142.0,-599.0,186.0,1.0
10208.0,-632.0,19864.0,-869.0,-721.0,-812.0,196.0,1.0
8712.0,-120.0,24140.0,-504.0,-228.0,-852.0,214.0,1.0
6140.0,-464.0,26772.0,-340.0,205.0,-822.0,198.0,1.0
2800.0,-516.0,22696.0,-119.0,1114.0,-759.0,209.0,1.0
848.0,-1684.0,25516.0,94.0,2342.0,-611.0,193.0,1.0
-152.0,-1936.0,26888.0,16.0,2225.0,-416.0,196.0,1.0
-1536.0,-2544.0,26508.0,-271.0,850.0,35.0,208.0,1.0
-7532.0,1508.0,8524.0,-467.0,758.0,441.0,211.0,1.0
-10552.0,4192.0,8388.0,-739.0,-30.0,772.0,183.0,1.0
-15588.0,4016.0,9204.0,-1036.0,-1524.0,928.0,224.0,1.0
-6692.0,128.0,12148.0,-1705.0,-2277.0,807.0,193.0,1.0
-6108.0,-1368.0,17848.0,-2115.0,-2042.0,389.0,188.0,1.0
496.0,-1452.0,13840.0,-2340.0,-1747.0,-91.0,200.0,1.0
3244.0,-548.0,14268.0,-1748.0,-1476.0,-292.0,208.0,1.0
2708.0,-1048.0,18684.0,-1264.0,-2405.0,-545.0,192.0,1.0
4180.0,-1796.0,20244.0,-922.0,-978.0,-748.0,198.0,1.0
4044.0,-940.0,26368.0,-573.0,-269.0,-818.0,215.0,1.0
5064.0,-1064.0,22336.0,-234.0,401.0,-811.0,198.0,1.0
6156.0,0.0,19988.0,134.0,2160.0,-644.0,209.0,1.0
-6884.0,172.0,15340.0,-257.0,945.0,-26.0,227.0,1.0
-8540.0,1668.0,9036.0,-548.0,645.0,550.0,199.0,1.0
-14164.0,4840.0,8656.0,-928.0,-1323.0,910.0,200.0,1.0
-16320.0,3652.0,11064.0,-1586.0,-2278.0,860.0,192.0,1.0
-2972.0,-1840.0,15672.0,-2245.0,-1824.0,262.0,233.0,1.0
7472.0,-948.0,5928.0,-2065.0,-1590.0,-174.0,192.0,1.0
6292.0,-2424.0,6200.0,-1449.0,-1774.0,-365.0,203.0,1.0
7372.0,-1540.0,19248.0,-1091.0,-1560.0,-737.0,192.0,1.0
10424.0,-548.0,19976.0,-669.0,-345.0,-870.0,217.0,1.0
4992.0,-120.0,21248.0,-217.0,725.0,-809.0,198.0,1.0
736.0,-1464.0,24512.0,110.0,2123.0,-634.0,204.0,1.0
268.0,-2440.0,25356.0,-41.0,1993.0,-297.0,188.0,1.0
-2988.0,-532.0,24856.0,-323.0,654.0,178.0,230.0,1.0
-15692.0,4084.0,10320.0,-660.0,349.0,721.0,191.0,1.0
-16612.0,3128.0,11324.0,-1301.0,-2206.0,936.0,201.0,1.0
-8284.0,2784.0,6056.0,-1861.0,-2204.0,726.0,185.0,1.0
4352.0,-1124.0,10516.0,-2313.0,-1947.0,138.0,233.0,1.0
6304.0,-2184.0,5540.0,-2117.0,-1598.0,-216.0,194.0,1.0
5908.0,-2592.0,6224.0,-1473.0,-1945.0,-392.0,204.0,1.0
6872.0,-1184.0,18084.0,-1180.0,-2044.0,-602.0,191.0,1.0
6684.0,-1312.0,21028.0,-880.0,-781.0,-776.0,222.0,1.0
7844.0,-728.0,23068.0,-491.0,-112.0,-834.0,205.0,1.0
5672.0,-308.0,20732.0,-223.0,645.0,-777.0,198.0,1.0
4068.0,-148.0,21268.0,66.0,1809.0,-676.0,205.0,1.0
1572.0,-1600.0,24812.0,118.0,2415.0,-433.0,188.0,1.0
-580.0,-2132.0,27036.0,-200.0,1201.0,-136.0,198.0,1.0
-5744.0,752.0,10592.0,-397.0,810.0,299.0,217.0,1.0
-8480.0,1496.0,8852.0,-632.0,148.0,761.0,186.0,1.0
-10516.0,3680.0,10076.0,-1066.0,-1499.0,923.0,198.0,1.0
-6268.0,2852.0,6608.0,-1513.0,-2215.0,872.0,192.0,1.0
-5360.0,2024.0,7980.0,-1896.0,-2044.0,596.0,190.0,1.0
-5548.0,316.0,10252.0,-2223.0,-1947.0,182.0,232.0,1.0
5412.0,-2084.0,6620.0,-2307.0,-1781.0,-134.0,206.0,1.0
4576.0,-2212.0,6456.0,-1799.0,-1752.0,-250.0,200.0,1.0
5672.0,-2368.0,8380.0,-1330.0,-1991.0,-511.0,189.0,1.0
9752.0,-1056.0,18720.0,-900.0,-1182.0,-774.0,197.0,1.0
7756.0,-400.0,24468.0,-548.0,-213.0,-819.0,215.0,1.0
5180.0,-452.0,27424.0,-242.0,501.0,-778.0,196.0,1.0
2468.0,-1716.0,24172.0,61.0,2019.0,-636.0,211.0,1.0
-1552.0,-2260.0,27144.0,-50.0,2218.0,-349.0,193.0,1.0
-3088.0,-1604.0,26512.0,-229.0,902.0,-11.0,229.0,1.0
-5836.0,-128.0,21104.0,-516.0,703.0,526.0,197.0,1.0
-16368.0,3248.0,10888.0,-1081.0,-1680.0,953.0,204.0,1.0
-6340.0,2704.0,5688.0,-1730.0,-1979.0,729.0,191.0,1.0
3848.0,-896.0,11268.0,-2257.0,-1872.0,221.0,232.0,1.0
5700.0,-2608.0,5684.0,-2223.0,-1703.0,-170.0,196.0,1.0
3180.0,-2296.0,8628.0,-1539.0,-2045.0,-313.0,200.0,1.0
7088.0,-1444.0,19692.0,-1146.0,-2151.0,-603.0,196.0,1.0
7392.0,-640.0,22964.0,-852.0,-728.0,-774.0,226.0,1.0
7404.0,-40.0,25748.0,-412.0,-67.0,-801.0,201.0,1.0
4712.0,-980.0,25176.0,-189.0,785.0,-779.0,193.0,1.0
-1368.0,-2180.0,27396.0,152.0,2294.0,-612.0,166.0,1.0
-2560.0,-1536.0,25444.0,-138.0,1382.0,-151.0,189.0,1.0
-6360.0,-208.0,19396.0,-488.0,694.0,476.0,202.0,1.0
-16376.0,3604.0,10824.0,-953.0,-1117.0,911.0,193.0,1.0
-5428.0,2796.0,5256.0,-1612.0,-2114.0,857.0,191.0,1.0
-6032.0,976.0,9056.0,-2119.0,-1903.0,352.0,182.0,1.0
5764.0,-2668.0,5796.0,-2353.0,-1808.0,-59.0,207.0,1.0
3764.0,-2400.0,8240.0,-1821.0,-1645.0,-266.0,192.0,1.0
1496.0,-1088.0,14984.0,-1422.0,-2321.0,-475.0,188.0,1.0
9268.0,-548.0,20384.0,-1027.0,-1150.0,-759.0,189.0,1.0
8356.0,196.0,24896.0,-629.0,-266.0,-839.0,216.0,1.0
4300.0,-772.0,26392.0,-259.0,428.0,-832.0,197.0,1.0
5012.0,-752.0,21936.0,137.0,2144.0,-676.0,175.0,1.0
-2808.0,-1084.0,25420.0,-134.0,1633.0,-247.0,182.0,1.0
-6256.0,-172.0,17204.0,-394.0,743.0,322.0,210.0,1.0
-8500.0,1440.0,9852.0,-793.0,-479.0,863.0,189.0,1.0
-5740.0,3384.0,6624.0,-1413.0,-2264.0,946.0,184.0,1.0
-6408.0,168.0,14084.0,-2064.0,-2026.0,516.0,205.0,1.0
-2452.0,-2372.0,15460.0,-2332.0,-1790.0,-128.0,208.0,1.0
3976.0,-832.0,14016.0,-1609.0,-1641.0,-297.0,192.0,1.0
3724.0,-1476.0,20440.0,-1049.0,-1972.0,-674.0,173.0,1.0
9820.0,-884.0,17648.0,-624.0,-235.0,-810.0,219.0,1.0
6500.0,-264.0,20012.0,-148.0,660.0,-814.0,195.0,1.0
1572.0,-1624.0,24900.0,136.0,2435.0,-643.0,185.0,1.0
-2392.0,-2712.0,26904.0,-251.0,986.0,-35.0,222.0,1.0
-14596.0,5096.0,9500.0,-596.0,387.0,678.0,191.0,1.0
-13272.0,4216.0,9528.0,-1302.0,-2202.0,992.0,202.0,1.0
-5792.0,1716.0,8244.0,-2104.0,-2043.0,533.0,218.0,1.0
5360.0,-2772.0,6472.0,-2258.0,-1724.0,-146.0,195.0,1.0
3000.0,-1200.0,15692.0,-1387.0,-2252.0,-489.0,191.0,1.0
5148.0,-2140.0,19876.0,-880.0,-720.0,-757.0,198.0,1.0
4776.0,-968.0,22900.0,-373.0,27.0,-790.0,201.0,1.0
3708.0,-248.0,23004.0,4.0,1588.0,-756.0,203.0,1.0
-1656.0,-2024.0,27812.0,-15.0,2233.0,-369.0,189.0,1.0
-4824.0,-1376.0,26364.0,-315.0,653.0,179.0,231.0,1.0
-15056.0,5008.0,8512.0,-619.0,184.0,747.0,183.0,1.0
-15272.0,3408.0,11128.0,-1361.0,-2371.0,931.0,206.0,1.0
-4196.0,3256.0,5100.0,-1982.0,-1850.0,542.0,196.0,1.0
3644.0,-744.0,8620.0,-2264.0,-2009.0,36.0,214.0,1.0
4924.0,-2480.0,6924.0,-1986.0,-1670.0,-255.0,192.0,1.0
5556.0,-1496.0,9264.0,-1416.0,-1874.0,-456.0,190.0,1.0
8564.0,-500.0,21084.0,-1023.0,-1427.0,-716.0,176.0,1.0
7848.0,-260.0,24792.0,-725.0,-374.0,-803.0,227.0,1.0
5684.0,184.0,26668.0,-280.0,0.0,-828.0,198.0,1.0
5084.0,-496.0,25612.0,-262.0,622.0,-800.0,195.0,1.0
1232.0,-1312.0,24012.0,13.0,1444.0,-734.0,194.0,1.0
676.0,-1928.0,26028.0,154.0,2333.0,-564.0,161.0,1.0
-52.0,-1380.0,25060.0,-125.0,1947.0,-305.0,191.0,1.0
-1400.0,-1836.0,27272.0,-208.0,1205.0,-120.0,193.0,1.0
-7224.0,288.0,16976.0,-293.0,670.0,168.0,233.0,1.0
-6812.0,420.0,16780.0,-459.0,748.0,372.0,219.0,1.0
-6992.0,408.0,16184.0,-597.0,490.0,595.0,197.0,1.0
-17676.0,3688.0,11448.0,-756.0,4.0,798.0,186.0,1.0
-16264.0,3316.0,9860.0,-875.0,-1008.0,905.0,195.0,1.0
-16108.0,3732.0,9300.0,-1174.0,-1736.0,948.0,184.0,1.0
-16212.0,3412.0,9944.0,-1480.0,-2073.0,928.0,187.0,1.0
-6504.0,1436.0,10136.0,-1811.0,-2121.0,689.0,192.0,1.0
-6860.0,1052.0,11440.0,-2113.0,-1943.0,388.0,209.0,1.0
6816.0,-1188.0,8168.0,-2295.0,-1761.0,26.0,230.0,1.0
5740.0,-1456.0,7368.0,-2263.0,-1746.0,-190.0,202.0,1.0
7012.0,-2416.0,4904.0,-1803.0,-1634.0,-289.0,195.0,1.0
3688.0,-900.0,17356.0,-1408.0,-1963.0,-481.0,204.0,1.0
6044.0,-1500.0,17340.0,-1094.0,-1844.0,-662.0,195.0,1.0
6724.0,-1104.0,17932.0,-885.0,-724.0,-783.0,218.0,1.0
2692.0,-744.0,27384.0,-506.0,-169.0,-781.0,214.0,1.0
4916.0,-876.0,22852.0,-285.0,433.0,-830.0,195.0,1.0
4912.0,-836.0,21708.0,-16.0,1436.0,-664.0,200.0,1.0
5272.0,-188.0,20880.0,116.0,2353.0,-541.0,189.0,1.0
-3532.0,-400.0,25080.0,-69.0,1746.0,-201.0,191.0,1.0
-5844.0,52.0,21572.0,-275.0,674.0,160.0,231.0,1.0
-6860.0,208.0,17172.0,-473.0,737.0,486.0,201.0,1.0
-7496.0,732.0,13060.0,-708.0,-144.0,794.0,184.0,1.0
-14220.0,3880.0,10176.0,-1078.0,-1641.0,944.0,222.0,1.0
-11316.0,3016.0,8616.0,-1627.0,-2229.0,826.0,193.0,1.0
-4340.0,-2364.0,16712.0,-1986.0,-1992.0,526.0,199.0,1.0
-2384.0,-2416.0,15456.0,-2276.0,-1817.0,104.0,235.0,1.0
-108.0,-2104.0,13996.0,-2288.0,-1700.0,-152.0,206.0,1.0
3384.0,-2020.0,10104.0,-1909.0,-1478.0,-305.0,195.0,1.0
4144.0,-1608.0,10156.0,-1516.0,-1851.0,-401.0,207.0,1.0
4452.0,-1176.0,10824.0,-1246.0,-2352.0,-592.0,192.0,1.0
7172.0,-828.0,19208.0,-1045.0,-1497.0,-675.0,193.0,1.0
8228.0,-736.0,18988.0,-824.0,-541.0,-802.0,229.0,1.0
9224.0,-644.0,18356.0,-641.0,-238.0,-859.0,226.0,1.0
4272.0,-780.0,24088.0,-468.0,-37.0,-832.0,207.0,1.0
3036.0,-1160.0,24920.0,-320.0,265.0,-797.0,196.0,1.0
3964.0,-896.0,23928.0,-193.0,757.0,-785.0,200.0,1.0
3744.0,-1128.0,23876.0,-18.0,1577.0,-704.0,197.0,1.0
1520.0,-1792.0,25084.0,178.0,2366.0,-547.0,189.0,1.0
-1472.0,-1980.0,27392.0,-37.0,2114.0,-366.0,195.0,1.0
-756.0,-2132.0,26332.0,-212.0,986.0,-89.0,197.0,1.0
-5596.0,1036.0,12704.0,-305.0,697.0,59.0,235.0,1.0
-7480.0,964.0,10948.0,-442.0,723.0,426.0,207.0,1.0
-7620.0,2088.0,9148.0,-687.0,347.0,763.0,183.0,1.0
-10088.0,3988.0,8452.0,-936.0,-1357.0,934.0,201.0,1.0
-3636.0,2348.0,4488.0,-1505.0,-2121.0,906.0,189.0,1.0
-6208.0,1456.0,9960.0,-1956.0,-2136.0,592.0,190.0,1.0
-6176.0,-108.0,13912.0,-2280.0,-1896.0,111.0,232.0,1.0
6024.0,-3052.0,5492.0,-2240.0,-1733.0,-168.0,199.0,1.0
4720.0,-2804.0,7180.0,-1683.0,-1618.0,-302.0,210.0,1.0
4412.0,-1896.0,9472.0,-1311.0,-2311.0,-555.0,190.0,1.0
6396.0,-1216.0,20272.0,-982.0,-1459.0,-713.0,192.0,1.0
10760.0,-548.0,18748.0,-763.0,-302.0,-817.0,234.0,1.0
7912.0,-180.0,24764.0,-351.0,95.0,-814.0,201.0,1.0
5388.0,60.0,20020.0,-158.0,829.0,-766.0,202.0,1.0
1480.0,-1528.0,24568.0,72.0,2207.0,-637.0,207.0,1.0
-1244.0,-2140.0,27376.0,11.0,2127.0,-329.0,194.0,1.0
-2576.0,-2652.0,26516.0,-210.0,762.0,69.0,234.0,1.0
-9228.0,3140.0,8744.0,-532.0,700.0,528.0,205.0,1.0
-13596.0,4732.0,9080.0,-868.0,-646.0,902.0,188.0,1.0
-16608.0,3184.0,10228.0,-1363.0,-2120.0,974.0,206.0,1.0
-6008.0,-492.0,16136.0,-1948.0,-2072.0,609.0,194.0,1.0
-4084.0,-2312.0,16528.0,-2270.0,-1848.0,186.0,236.0,1.0
2060.0,-1504.0,12916.0,-2249.0,-1643.0,-182.0,196.0,1.0
3360.0,-740.0,14240.0,-1535.0,-1885.0,-408.0,196.0,1.0
2760.0,-1080.0,18264.0,-1149.0,-2425.0,-605.0,192.0,1.0
4632.0,-1768.0,20020.0,-862.0,-655.0,-764.0,222.0,1.0
3232.0,-848.0,27000.0,-408.0,-144.0,-832.0,203.0,1.0
5320.0,-764.0,22040.0,-144.0,1028.0,-792.0,200.0,1.0
6004.0,60.0,19772.0,109.0,2317.0,-553.0,194.0,1.0
-4472.0,240.0,22452.0,-94.0,1664.0,-226.0,187.0,1.0
-6228.0,500.0,15888.0,-378.0,687.0,194.0,229.0,1.0
-8044.0,984.0,11280.0,-583.0,507.0,632.0,194.0,1.0
-9000.0,2964.0,8828.0,-869.0,-1001.0,902.0,197.0,1.0
-6604.0,2828.0,6664.0,-1391.0,-2118.0,964.0,203.0,1.0
-4452.0,1364.0,5968.0,-1727.0,-1944.0,705.0,194.0,1.0
-7168.0,-200.0,13932.0,-2298.0,-1905.0,217.0,229.0,1.0
7020.0,-2836.0,4588.0,-2293.0,-1668.0,-172.0,207.0,1.0
5764.0,-2688.0,8216.0,-1863.0,-1430.0,-310.0,203.0,1.0
3344.0,-1196.0,12608.0,-1289.0,-2436.0,-538.0,190.0,1.0
11276.0,-568.0,18356.0,-958.0,-1184.0,-828.0,202.0,1.0
7392.0,-224.0,25816.0,-500.0,-227.0,-868.0,209.0,1.0
3004.0,-768.0,27112.0,-218.0,675.0,-809.0,197.0,1.0
428.0,-2112.0,26096.0,158.0,2284.0,-627.0,183.0,1.0
-1948.0,-2060.0,25720.0,-94.0,1865.0,-264.0,192.0,1.0
-5640.0,24.0,19584.0,-371.0,601.0,332.0,217.0,1.0
-6636.0,1000.0,10164.0,-661.0,-46.0,771.0,188.0,1.0
-7924.0,3112.0,5312.0,-1294.0,-2045.0,962.0,206.0,1.0
-4856.0,628.0,8504.0,-1931.0,-2100.0,564.0,193.0,1.0
-5444.0,-1876.0,16724.0,-2277.0,-1933.0,-5.0,216.0,1.0
5684.0,-1460.0,8920.0,-1992.0,-1712.0,-286.0,196.0,1.0
3160.0,-1184.0,18064.0,-1330.0,-2503.0,-558.0,189.0,1.0
6516.0,-1572.0,20108.0,-821.0,-450.0,-748.0,214.0,1.0
2876.0,-928.0,25440.0,-279.0,88.0,-848.0,199.0,1.0
3700.0,-480.0,22536.0,-91.0,1390.0,-775.0,192.0,1.0
-1436.0,-1544.0,25864.0,0.0,2186.0,-312.0,184.0,1.0
-4464.0,-2196.0,27420.0,-298.0,804.0,19.0,228.0,1.0
-11640.0,4876.0,8324.0,-482.0,449.0,608.0,197.0,1.0
-16332.0,3268.0,9688.0,-965.0,-1396.0,926.0,212.0,1.0
-11316.0,2556.0,9096.0,-1635.0,-2299.0,822.0,194.0,1.0
1440.0,-1676.0,12944.0,-2227.0,-1830.0,251.0,231.0,1.0
3424.0,-2296.0,6852.0,-2188.0,-2073.0,-187.0,192.0,1.0
1320.0,-1672.0,12844.0,-1391.0,-2367.0,-432.0,199.0,1.0
7804.0,-840.0,21848.0,-983.0,-1211.0,-737.0,201.0,1.0
5908.0,16.0,26804.0,-347.0,-15.0,-832.0,204.0,1.0
4560.0,-956.0,23388.0,-185.0,941.0,-756.0,205.0,1.0
6512.0,-64.0,19048.0,60.0,2446.0,-480.0,190.0,1.0
-6452.0,-84.0,19616.0,-188.0,1155.0,-69.0,192.0,1.0
-7548.0,1292.0,10776.0,-445.0,687.0,403.0,203.0,1.0
-11256.0,5136.0,9212.0,-1016.0,-1258.0,923.0,201.0,1.0
-4248.0,76.0,8608.0,-1698.0,-2072.0,831.0,189.0,1.0
-4820.0,-1300.0,16584.0,-2157.0,-1845.0,376.0,219.0,1.0
2268.0,-1256.0,12536.0,-2276.0,-1605.0,-143.0,203.0,1.0
5352.0,-1036.0,12856.0,-1726.0,-1417.0,-364.0,204.0,1.0
7172.0,-1432.0,16948.0,-1191.0,-2007.0,-669.0,192.0,1.0
9860.0,-756.0,18120.0,-776.0,-219.0,-776.0,231.0,1.0
5384.0,-668.0,21036.0,-185.0,277.0,-834.0,189.0,1.0
1796.0,-1648.0,24436.0,141.0,2156.0,-670.0,194.0,1.0
-3152.0,-2940.0,26756.0,-172.0,1072.0,-57.0,169.0,1.0
-5496.0,-36.0,17516.0,-552.0,539.0,639.0,190.0,1.0
-11108.0,3228.0,7760.0,-1333.0,-2141.0,993.0,209.0,1.0
-5844.0,252.0,11444.0,-2113.0,-2024.0,453.0,216.0,1.0
-252.0,-2300.0,14528.0,-2165.0,-1977.0,-185.0,191.0,1.0
5912.0,-1480.0,16748.0,-1339.0,-2414.0,-531.0,186.0,1.0
10792.0,-928.0,17604.0,-762.0,-246.0,-847.0,234.0,1.0
5552.0,-252.0,27292.0,-279.0,460.0,-844.0,195.0,1.0
-2124.0,-2508.0,28228.0,118.0,2438.0,-580.0,176.0,1.0
-3524.0,132.0,21552.0,-247.0,769.0,87.0,231.0,1.0
-8236.0,1056.0,10760.0,-711.0,-221.0,823.0,189.0,1.0
-4076.0,2204.0,5276.0,-1527.0,-2435.0,884.0,188.0,1.0
-5440.0,-1756.0,16400.0,-2234.0,-1810.0,286.0,231.0,1.0
2808.0,-816.0,9864.0,-2041.0,-1900.0,-245.0,189.0,1.0
7528.0,-1348.0,17232.0,-1304.0,-2375.0,-544.0,189.0,1.0
12224.0,-460.0,18880.0,-780.0,-197.0,-855.0,231.0,1.0
1992.0,-1176.0,28700.0,-126.0,874.0,-778.0,194.0,1.0
-2092.0,-2764.0,26780.0,121.0,2510.0,-461.0,187.0,1.0
-6960.0,512.0,15860.0,-423.0,637.0,295.0,217.0,1.0
-11748.0,5332.0,9872.0,-997.0,-1277.0,947.0,201.0,1.0
-5140.0,-424.0,15976.0,-1966.0,-2144.0,647.0,189.0,1.0
8316.0,-1088.0,6296.0,-2323.0,-1847.0,-80.0,202.0,1.0
3512.0,-2056.0,11012.0,-1408.0,-2183.0,-424.0,200.0,1.0
9040.0,448.0,24432.0,-814.0,-418.0,-778.0,226.0,1.0
4028.0,-956.0,22916.0,-271.0,401.0,-802.0,191.0,1.0
1812.0,-1320.0,22588.0,88.0,2466.0,-474.0,182.0,1.0
-3116.0,-1552.0,26352.0,-291.0,820.0,119.0,230.0,1.0
-17436.0,3604.0,10348.0,-894.0,-898.0,883.0,192.0,1.0
-5620.0,3056.0,5844.0,-1628.0,-2257.0,844.0,192.0,1.0
-5840.0,-184.0,15360.0,-2302.0,-1849.0,132.0,226.0,1.0
4448.0,-1852.0,10456.0,-1870.0,-1488.0,-259.0,196.0,1.0
6040.0,-1676.0,17304.0,-1141.0,-1961.0,-602.0,191.0,1.0
10880.0,-772.0,17660.0,-517.0,-48.0,-871.0,212.0,1.0
3600.0,-336.0,22940.0,-149.0,842.0,-793.0,198.0,1.0
-624.0,-2280.0,27428.0,111.0,2426.0,-504.0,182.0,1.0
-2980.0,-1540.0,25560.0,-259.0,857.0,42.0,232.0,1.0
-7180.0,52.0,17532.0,-532.0,397.0,697.0,189.0,1.0
-13260.0,3684.0,9448.0,-1171.0,-1858.0,985.0,191.0,1.0
-5832.0,2860.0,6748.0,-1841.0,-1858.0,985.0,165.0,1.0
-7216.0,-160.0,13680.0,-2068.0,-2142.0,354.0,203.0,1.0
-4160.0,-2608.0,16656.0,-2293.0,-1981.0,-47.0,207.0,1.0
3620.0,-1248.0,12224.0,-1712.0,-1560.0,-311.0,206.0,1.0
3920.0,-888.0,16048.0,-1299.0,-2286.0,-619.0,178.0,1.0
7088.0,-1336.0,17508.0,-931.0,-813.0,-772.0,198.0,1.0
1992.0,-516.0,27876.0,-491.0,-80.0,-844.0,206.0,1.0
3752.0,-896.0,22928.0,-190.0,595.0,-763.0,197.0,1.0
5464.0,-8.0,19500.0,106.0,2188.0,-537.0,193.0,1.0
2020.0,-1496.0,24400.0,-78.0,1722.0,-227.0,188.0,1.0
-7472.0,1208.0,12404.0,-428.0,559.0,296.0,222.0,1.0
-10980.0,3992.0,8956.0,-686.0,-114.0,762.0,180.0,1.0
-18068.0,3756.0,11572.0,-1387.0,-2158.0,951.0,202.0,1.0
-5480.0,-780.0,15928.0,-1932.0,-2031.0,535.0,174.0,1.0
-1504.0,-2772.0,14796.0,-2353.0,-1947.0,11.0,215.0,1.0
8560.0,-1348.0,6252.0,-1849.0,-1546.0,-239.0,193.0,1.0
3860.0,-1076.0,19056.0,-1303.0,-2396.0,-614.0,186.0,1.0
7604.0,-1588.0,19520.0,-804.0,-634.0,-840.0,194.0,1.0
8656.0,-64.0,23276.0,-435.0,-36.0,-866.0,200.0,1.0
3172.0,-552.0,22724.0,-130.0,1181.0,-791.0,212.0,1.0
-2380.0,-2068.0,27672.0,-14.0,2226.0,-393.0,192.0,1.0
-4084.0,-512.0,25452.0,-270.0,745.0,137.0,235.0,1.0
-7120.0,812.0,15272.0,-711.0,313.0,783.0,184.0,1.0
-9392.0,3036.0,7072.0,-1381.0,-2085.0,951.0,202.0,1.0
-4788.0,148.0,9400.0,-2046.0,-1946.0,460.0,208.0,1.0
-4976.0,-2612.0,16412.0,-2252.0,-2063.0,-106.0,204.0,1.0
964.0,-1156.0,17784.0,-1453.0,-2167.0,-410.0,208.0,1.0
4176.0,-1608.0,20688.0,-1029.0,-1840.0,-752.0,195.0,1.0
11884.0,-676.0,17208.0,-475.0,20.0,-879.0,207.0,1.0
6148.0,172.0,19316.0,-135.0,977.0,-758.0,207.0,1.0
996.0,-1664.0,25400.0,134.0,2469.0,-461.0,192.0,1.0
-4640.0,-1468.0,26064.0,-350.0,511.0,174.0,235.0,1.0
-15592.0,4628.0,8400.0,-657.0,54.0,774.0,187.0,1.0
-11256.0,2204.0,9588.0,-1344.0,-2358.0,918.0,205.0,1.0
-5624.0,2276.0,8284.0,-2033.0,-2028.0,557.0,202.0,1.0
7544.0,-2604.0,3624.0,-2223.0,-1765.0,-130.0,203.0,1.0
1768.0,-1044.0,14812.0,-1537.0,-2165.0,-386.0,194.0,1.0
2952.0,-1268.0,19500.0,-979.0,-1672.0,-713.0,194.0,1.0
5840.0,-560.0,24672.0,-686.0,-247.0,-787.0,212.0,1.0
4684.0,-828.0,22224.0,-75.0,904.0,-761.0,195.0,1.0
2884.0,-1308.0,23432.0,152.0,2444.0,-584.0,197.0,1.0
-1956.0,-2916.0,27012.0,-271.0,840.0,32.0,230.0,1.0
-15604.0,4564.0,10948.0,-742.0,-40.0,844.0,182.0,1.0
-11168.0,3440.0,9636.0,-1560.0,-2076.0,932.0,186.0,1.0
-4832.0,836.0,7816.0,-2182.0,-2017.0,304.0,226.0,1.0
6256.0,-2960.0,5912.0,-2157.0,-1537.0,-204.0,191.0,1.0
3532.0,-1024.0,14516.0,-1404.0,-2154.0,-460.0,198.0,1.0
4168.0,-1552.0,19888.0,-941.0,-822.0,-774.0,214.0,1.0
2236.0,-1024.0,27200.0,-385.0,-142.0,-870.0,204.0,1.0
4168.0,-628.0,22568.0,-149.0,1093.0,-778.0,221.0,1.0
3296.0,-816.0,20912.0,62.0,2362.0,-361.0,198.0,1.0
-8516.0,564.0,15480.0,-223.0,872.0,36.0,227.0,1.0
-8932.0,3404.0,8668.0,-545.0,674.0,572.0,198.0,1.0
-17124.0,3224.0,12040.0,-1117.0,-1479.0,942.0,178.0,1.0
-9580.0,3192.0,6856.0,-1960.0,-2005.0,593.0,192.0,1.0
7224.0,-1996.0,6252.0,-2376.0,-1937.0,-66.0,206.0,1.0
5476.0,-2400.0,9256.0,-1521.0,-1648.0,-394.0,205.0,1.0
4256.0,-1448.0,19120.0,-929.0,-1011.0,-822.0,192.0,1.0
4636.0,-860.0,23280.0,-375.0,-20.0,-833.0,188.0,1.0
3276.0,-1084.0,23448.0,113.0,2430.0,-628.0,191.0,1.0
-2660.0,-1484.0,25076.0,-273.0,812.0,120.0,232.0,1.0
-15520.0,4628.0,9992.0,-889.0,-1139.0,960.0,197.0,1.0
-4776.0,1084.0,7160.0,-1863.0,-2048.0,607.0,192.0,1.0
-352.0,-1596.0,14112.0,-2256.0,-1690.0,-55.0,196.0,1.0
2788.0,-1276.0,20864.0,-1356.0,-2048.0,-430.0,198.0,1.0
11912.0,-780.0,16784.0,-881.0,-630.0,-874.0,214.0,1.0
3016.0,272.0,29956.0,-298.0,131.0,-804.0,182.0,1.0
6200.0,-428.0,20712.0,93.0,2297.0,-650.0,191.0,1.0
-8076.0,272.0,22340.0,-288.0,949.0,-6.0,208.0,1.0
-9540.0,2576.0,8596.0,-607.0,207.0,708.0,188.0,1.0
-17440.0,3780.0,11420.0,-1492.0,-2488.0,901.0,195.0,1.0
1660.0,-1556.0,13344.0,-2266.0,-1835.0,244.0,230.0,1.0
6164.0,-2916.0,8396.0,-1906.0,-1622.0,-344.0,196.0,1.0
4112.0,-1360.0,18052.0,-1133.0,-1870.0,-677.0,189.0,1.0
1908.0,-1400.0,28472.0,-419.0,32.0,-832.0,200.0,1.0
5596.0,-8.0,19772.0,81.0,1675.0,-628.0,205.0,1.0
-1852.0,-2048.0,25760.0,-18.0,2169.0,-245.0,190.0,1.0
-4200.0,64.0,23060.0,-416.0,624.0,410.0,207.0,1.0
-15892.0,3484.0,14216.0,-920.0,-952.0,930.0,194.0,1.0
-4252.0,2684.0,4804.0,-1674.0,-2222.0,773.0,192.0,1.0
-4852.0,-240.0,14148.0,-2318.0,-1782.0,150.0,233.0,1.0
6600.0,-2296.0,8312.0,-2108.0,-1920.0,-244.0,189.0,1.0
1512.0,-1100.0,18172.0,-1283.0,-2467.0,-527.0,179.0,1.0
6044.0,-1656.0,20080.0,-847.0,-590.0,-808.0,214.0,1.0
2800.0,-780.0,25416.0,-225.0,143.0,-874.0,197.0,1.0
3628.0,-404.0,22496.0,42.0,1875.0,-710.0,208.0,1.0
-2444.0,-1944.0,27732.0,-103.0,1729.0,-218.0,190.0,1.0
-6096.0,116.0,25900.0,-456.0,585.0,437.0,210.0,1.0
-16232.0,3288.0,10008.0,-878.0,-1034.0,911.0,193.0,1.0
-5688.0,2836.0,5924.0,-1714.0,-2135.0,765.0,191.0,1.0
-4444.0,-508.0,13392.0,-2266.0,-1933.0,49.0,218.0,1.0
6516.0,-2216.0,8244.0,-1823.0,-1498.0,-350.0,199.0,1.0
4684.0,-1552.0,18112.0,-1162.0,-2200.0,-697.0,190.0,1.0
11284.0,-1028.0,17760.0,-622.0,45.0,-823.0,213.0,1.0
3884.0,-396.0,22272.0,-52.0,1417.0,-738.0,204.0,1.0
-2540.0,-2052.0,26168.0,-38.0,2062.0,-227.0,182.0,1.0
-5172.0,64.0,21304.0,-404.0,814.0,370.0,207.0,1.0
-12784.0,3944.0,11812.0,-1085.0,-1435.0,945.0,202.0,1.0
-5048.0,500.0,10552.0,-1978.0,-1879.0,639.0,192.0,1.0
-532.0,-1840.0,14916.0,-2264.0,-1675.0,-181.0,195.0,1.0
3668.0,-1392.0,21456.0,-1236.0,-2233.0,-522.0,183.0,1.0
12020.0,-644.0,18892.0,-685.0,-23.0,-841.0,223.0,1.0
2812.0,-1068.0,26900.0,-118.0,1194.0,-781.0,213.0,1.0
-4036.0,-528.0,25760.0,-118.0,1743.0,-284.0,182.0,1.0
-7880.0,1760.0,10808.0,-655.0,662.0,628.0,195.0,1.0
-16392.0,3296.0,9692.0,-1342.0,-2273.0,978.0,200.0,1.0
-1696.0,-2268.0,15360.0,-2130.0,-1808.0,292.0,230.0,1.0
6344.0,-2716.0,5676.0,-1943.0,-1508.0,-266.0,201.0,1.0
3192.0,-1176.0,17948.0,-1113.0,-1899.0,-758.0,193.0,1.0
1616.0,-1304.0,28432.0,-351.0,33.0,-848.0,197.0,1.0
3556.0,-472.0,20864.0,112.0,2013.0,-570.0,195.0,1.0
-3952.0,-2192.0,25108.0,-284.0,402.0,191.0,228.0,1.0
-15676.0,2448.0,14404.0,-826.0,-470.0,898.0,188.0,1.0
-2208.0,2568.0,3284.0,-1874.0,-1648.0,691.0,190.0,1.0
-5964.0,-2192.0,17112.0,-2222.0,-2373.0,58.0,210.0,1.0
2616.0,-1648.0,16684.0,-1696.0,-1681.0,-394.0,202.0,1.0
11152.0,-1304.0,16664.0,-1003.0,-1172.0,-828.0,195.0,1.0
7188.0,540.0,26144.0,-327.0,181.0,-819.0,190.0,1.0
-1864.0,-1948.0,26240.0,155.0,2172.0,-519.0,201.0,1.0
-5544.0,-84.0,25572.0,-210.0,968.0,35.0,212.0,1.0
-7112.0,1088.0,12012.0,-558.0,364.0,647.0,191.0,1.0
-13508.0,4376.0,10696.0,-1368.0,-2386.0,930.0,205.0,1.0
-5284.0,-1024.0,16540.0,-2133.0,-1760.0,398.0,200.0,1.0
6104.0,-1644.0,8728.0,-2052.0,-1561.0,-222.0,192.0,1.0
5304.0,-1520.0,20236.0,-1149.0,-2448.0,-585.0,189.0,1.0
12464.0,-444.0,17820.0,-735.0,-94.0,-878.0,233.0,1.0
5536.0,-588.0,25096.0,-237.0,617.0,-818.0,196.0,1.0
-3788.0,-2444.0,25944.0,89.0,2312.0,-442.0,191.0,1.0
-8944.0,500.0,21848.0,-324.0,472.0,135.0,229.0,1.0
-7408.0,2656.0,9088.0,-766.0,352.0,790.0,180.0,1.0
-16956.0,3744.0,9640.0,-1443.0,-2195.0,980.0,187.0,1.0
-4644.0,-2500.0,16736.0,-2172.0,-2024.0,321.0,210.0,1.0
9144.0,-1464.0,3808.0,-2111.0,-1454.0,-187.0,193.0,1.0
6228.0,-2776.0,8232.0,-1384.0,-2031.0,-579.0,191.0,1.0
9168.0,-180.0,21592.0,-940.0,-746.0,-812.0,200.0,1.0
5176.0,-176.0,26016.0,-398.0,36.0,-866.0,198.0,1.0
5196.0,-504.0,21976.0,-33.0,1664.0,-711.0,209.0,1.0
2012.0,-1252.0,24360.0,3.0,2153.0,-346.0,192.0,1.0
-7704.0,1372.0,9844.0,-324.0,669.0,323.0,209.0,1.0
-15532.0,4056.0,9860.0,-954.0,-1223.0,906.0,204.0,1.0
-8428.0,2432.0,6680.0,-1893.0,-1757.0,649.0,195.0,1.0
3232.0,-2064.0,7668.0,-2242.0,-2234.0,-46.0,205.0,1.0
832.0,-1308.0,16476.0,-1560.0,-2228.0,-446.0,205.0,1.0
5488.0,-1484.0,20496.0,-872.0,-728.0,-804.0,218.0,1.0
4560.0,-564.0,22536.0,-183.0,246.0,-853.0,194.0,1.0
1584.0,-1656.0,25160.0,127.0,2422.0,-596.0,192.0,1.0
-5016.0,176.0,23036.0,-352.0,549.0,189.0,228.0,1.0
-8264.0,1704.0,10312.0,-962.0,-776.0,930.0,193.0,1.0
-4232.0,488.0,7040.0,-1718.0,-2228.0,793.0,193.0,1.0
-2492.0,-2640.0,15740.0,-2210.0,-2122.0,-13.0,213.0,1.0
5172.0,-3560.0,7052.0,-1729.0,-1467.0,-384.0,203.0,1.0
8980.0,-1040.0,20124.0,-1048.0,-1397.0,-775.0,198.0,1.0
1788.0,-748.0,29644.0,-265.0,300.0,-827.0,193.0,1.0
6052.0,-16.0,19580.0,99.0,2352.0,-527.0,190.0,1.0
-8664.0,1312.0,13616.0,-344.0,510.0,189.0,229.0,1.0
-16896.0,4028.0,9448.0,-831.0,-1100.0,915.0,205.0,1.0
-3608.0,2956.0,3760.0,-1940.0,-1755.0,605.0,192.0,1.0
8212.0,-2760.0,5340.0,-2188.0,-2104.0,-220.0,194.0,1.0
3080.0,-1624.0,19736.0,-1312.0,-2247.0,-641.0,192.0,1.0
13424.0,-268.0,17160.0,-525.0,34.0,-886.0,211.0,1.0
1676.0,-1436.0,22648.0,60.0,1570.0,-674.0,211.0,1.0
-5500.0,-68.0,25144.0,-164.0,1283.0,-41.0,196.0,1.0
-8924.0,1808.0,10680.0,-710.0,466.0,795.0,191.0,1.0
-16464.0,2808.0,13788.0,-1537.0,-2202.0,853.0,166.0,1.0
-1124.0,-2540.0,15940.0,-2267.0,-2184.0,75.0,223.0,1.0
8360.0,-2756.0,6436.0,-1694.0,-1598.0,-348.0,186.0,1.0
4240.0,-1600.0,19840.0,-1017.0,-1146.0,-862.0,193.0,1.0
2692.0,-520.0,26440.0,-331.0,338.0,-861.0,188.0,1.0
2700.0,-392.0,21204.0,168.0,2360.0,-466.0,192.0,1.0
-4596.0,-988.0,25644.0,-365.0,323.0,224.0,223.0,1.0
-15180.0,3208.0,14468.0,-975.0,-1135.0,947.0,207.0,1.0
-36.0,720.0,5600.0,-2037.0,-1442.0,564.0,196.0,1.0
-2144.0,-3024.0,16756.0,-2185.0,-2554.0,-89.0,198.0,1.0
5532.0,-1368.0,20068.0,-1396.0,-2054.0,-610.0,191.0,1.0
11436.0,148.0,20400.0,-783.0,-88.0,-858.0,229.0,1.0
3704.0,-912.0,25024.0,-118.0,1069.0,-754.0,212.0,1.0
1688.0,-1540.0,24848.0,1.0,2017.0,-301.0,189.0,1.0
-9112.0,3736.0,9140.0,-563.0,761.0,596.0,195.0,1.0
-14080.0,4180.0,12932.0,-1511.0,-2183.0,937.0,159.0,1.0
-5236.0,188.0,12076.0,-2304.0,-2022.0,88.0,222.0,1.0
2032.0,-1072.0,16376.0,-1689.0,-1805.0,-318.0,185.0,1.0
6116.0,-1864.0,19224.0,-958.0,-1207.0,-814.0,200.0,1.0
8792.0,36.0,24520.0,-382.0,16.0,-845.0,195.0,1.0
280.0,-1848.0,26140.0,-22.0,1754.0,-727.0,213.0,1.0
-4256.0,-2088.0,26024.0,-124.0,1804.0,-242.0,191.0,1.0
-8968.0,524.0,21136.0,-468.0,664.0,490.0,207.0,1.0
-9272.0,1756.0,10108.0,-878.0,-1119.0,940.0,199.0,1.0
-4072.0,1436.0,4852.0,-1651.0,-2122.0,812.0,191.0,1.0
-5564.0,-1788.0,16364.0,-2199.0,-1842.0,217.0,233.0,1.0
6160.0,-1332.0,9964.0,-1898.0,-1598.0,-325.0,196.0,1.0
5128.0,-1180.0,19164.0,-1229.0,-2563.0,-600.0,191.0,1.0
12292.0,-380.0,17720.0,-717.0,17.0,-798.0,223.0,1.0
2564.0,-344.0,29380.0,-111.0,785.0,-753.0,200.0,1.0
-1664.0,-2648.0,26676.0,128.0,2419.0,-510.0,191.0,1.0
-6196.0,328.0,19900.0,-402.0,614.0,234.0,219.0,1.0
-8184.0,2156.0,9864.0,-888.0,-419.0,927.0,193.0,1.0
-5216.0,1456.0,8520.0,-1620.0,-2391.0,881.0,193.0,1.0
-3928.0,-2536.0,16000.0,-2251.0,-1865.0,219.0,234.0,1.0
3896.0,-1556.0,8756.0,-1971.0,-1703.0,-301.0,190.0,1.0
7764.0,-1028.0,17124.0,-1217.0,-2204.0,-640.0,194.0,1.0
9996.0,-48.0,22232.0,-642.0,-50.0,-828.0,222.0,1.0
4808.0,-988.0,23840.0,-227.0,775.0,-774.0,201.0,1.0
3980.0,-372.0,21256.0,11.0,2280.0,-380.0,194.0,1.0
-8512.0,1532.0,12400.0,-441.0,555.0,371.0,213.0,1.0
-16208.0,4164.0,8612.0,-1032.0,-1564.0,943.0,220.0,1.0
-4620.0,2648.0,5108.0,-1999.0,-2025.0,555.0,197.0,1.0
5284.0,-3800.0,6236.0,-2173.0,-2102.0,-146.0,197.0,1.0
2068.0,-1152.0,18620.0,-1346.0,-2424.0,-549.0,190.0,1.0
9024.0,-900.0,17280.0,-761.0,-224.0,-797.0,229.0,1.0
4188.0,-472.0,22172.0,-197.0,846.0,-796.0,201.0,1.0
-100.0,-2044.0,26436.0,90.0,2293.0,-430.0,190.0,1.0
-5492.0,312.0,22556.0,-418.0,760.0,258.0,219.0,1.0
-7936.0,1804.0,8820.0,-874.0,-948.0,913.0,199.0,1.0
-4344.0,980.0,6208.0,-1664.0,-2041.0,800.0,189.0,1.0
-4048.0,-2776.0,16548.0,-2317.0,-1996.0,154.0,227.0,1.0
5860.0,-2860.0,6404.0,-1861.0,-1388.0,-293.0,206.0,1.0
7112.0,-1500.0,19008.0,-1137.0,-1805.0,-734.0,192.0,1.0
7852.0,64.0,24772.0,-645.0,-247.0,-840.0,207.0,1.0
3624.0,-1032.0,25388.0,-60.0,1379.0,-644.0,198.0,1.0
-4624.0,108.0,23316.0,-155.0,1757.0,-189.0,191.0,1.0
-8216.0,2056.0,8396.0,-569.0,495.0,667.0,191.0,1.0
-16184.0,3288.0,10176.0,-1480.0,-2249.0,972.0,203.0,1.0
448.0,-2268.0,14156.0,-2180.0,-1937.0,310.0,232.0,1.0
6776.0,-3008.0,4224.0,-1916.0,-1519.0,-244.0,195.0,1.0
2428.0,-392.0,16156.0,-1113.0,-2281.0,-647.0,193.0,1.0
5396.0,-232.0,26756.0,-784.0,-396.0,-802.0,225.0,1.0
6124.0,-584.0,20808.0,-235.0,1016.0,-784.0,201.0,1.0
2368.0,-588.0,21584.0,67.0,2286.0,-365.0,199.0,1.0
-2456.0,-2760.0,26660.0,-182.0,841.0,80.0,229.0,1.0
-12564.0,4700.0,10576.0,-708.0,566.0,720.0,194.0,1.0
-14400.0,3976.0,10196.0,-1294.0,-2030.0,973.0,206.0,1.0
-3424.0,2276.0,4208.0,-2086.0,-1943.0,407.0,208.0,1.0
8160.0,-2340.0,3020.0,-2179.0,-1565.0,-151.0,201.0,1.0
4516.0,-2316.0,9928.0,-1479.0,-1746.0,-372.0,203.0,1.0
4868.0,-1304.0,15888.0,-1036.0,-1391.0,-818.0,200.0,1.0
3588.0,212.0,28240.0,-602.0,-147.0,-842.0,204.0,1.0
4176.0,-680.0,22052.0,-90.0,1098.0,-739.0,214.0,1.0
3068.0,-856.0,21016.0,103.0,2301.0,-331.0,195.0,1.0
-9068.0,1552.0,14404.0,-339.0,487.0,220.0,231.0,1.0
-12764.0,4980.0,8612.0,-770.0,-448.0,832.0,188.0,1.0
-14576.0,3540.0,14144.0,-1660.0,-2032.0,831.0,194.0,1.0
-2228.0,-2776.0,15772.0,-2184.0,-1837.0,224.0,226.0,1.0
6968.0,-2944.0,3448.0,-1975.0,-1672.0,-284.0,195.0,1.0
3016.0,-1696.0,11984.0,-1340.0,-2462.0,-545.0,191.0,1.0
11188.0,116.0,19976.0,-889.0,-525.0,-878.0,224.0,1.0
1692.0,-804.0,28892.0,-260.0,346.0,-785.0,195.0,1.0
6008.0,-604.0,19856.0,36.0,2088.0,-536.0,201.0,1.0
-6804.0,376.0,18352.0,-128.0,1205.0,-67.0,208.0,1.0
-9984.0,3412.0,8636.0,-693.0,423.0,717.0,192.0,1.0
-17396.0,3340.0,11720.0,-1313.0,-2187.0,974.0,205.0,1.0
-3248.0,1960.0,3744.0,-2080.0,-1357.0,400.0,229.0,1.0
6640.0,-2740.0,3376.0,-2040.0,-2369.0,-166.0,197.0,1.0
4368.0,-948.0,12456.0,-1357.0,-2011.0,-648.0,197.0,1.0
6540.0,208.0,27340.0,-881.0,-332.0,-917.0,224.0,1.0
3360.0,-248.0,24516.0,-269.0,461.0,-821.0,197.0,1.0
2100.0,-916.0,21820.0,123.0,2172.0,-478.0,197.0,1.0
-4604.0,-2140.0,25912.0,-326.0,501.0,218.0,232.0,1.0
-16928.0,3000.0,13120.0,-908.0,-279.0,857.0,193.0,1.0
-2716.0,2208.0,4080.0,-1794.0,-1930.0,712.0,188.0,1.0
-4392.0,-2640.0,16068.0,-2228.0,-2147.0,-12.0,203.0,1.0
2716.0,-1172.0,18300.0,-1470.0,-2205.0,-434.0,207.0,1.0
10164.0,-1264.0,17540.0,-868.0,-624.0,-796.0,211.0,1.0
6920.0,292.0,26200.0,-247.0,277.0,-882.0,198.0,1.0
-2092.0,-2572.0,27464.0,84.0,2242.0,-579.0,200.0,1.0
-8156.0,688.0,20124.0,-337.0,369.0,233.0,228.0,1.0
-9100.0,4308.0,8476.0,-918.0,-874.0,949.0,196.0,1.0
-13012.0,2620.0,10932.0,-1772.0,-2032.0,697.0,188.0,1.0
5104.0,-1128.0,6844.0,-2185.0,-2186.0,-109.0,197.0,1.0
6504.0,-1900.0,9692.0,-1451.0,-1880.0,-589.0,196.0,1.0
6864.0,20.0,25288.0,-857.0,-587.0,-862.0,233.0,1.0
5768.0,-452.0,21240.0,-216.0,559.0,-808.0,200.0,1.0
-1584.0,-1480.0,25268.0,110.0,2214.0,-422.0,196.0,1.0
-4668.0,76.0,23868.0,-398.0,226.0,338.0,223.0,1.0
-15236.0,2764.0,15264.0,-937.0,-933.0,890.0,189.0,1.0
-592.0,1816.0,3596.0,-1880.0,-1722.0,649.0,192.0,1.0
-5364.0,-2912.0,17180.0,-2209.0,-2343.0,-17.0,210.0,1.0
3352.0,-1540.0,17652.0,-1610.0,-1703.0,-447.0,206.0,1.0
11632.0,-848.0,16440.0,-975.0,-899.0,-835.0,196.0,1.0
5136.0,104.0,28520.0,-296.0,224.0,-871.0,196.0,1.0
4568.0,-292.0,22924.0,124.0,1890.0,-567.0,211.0,1.0
-5700.0,1332.0,22536.0,-191.0,1110.0,-7.0,200.0,1.0
-8896.0,1872.0,11360.0,-635.0,566.0,700.0,194.0,1.0
-14428.0,4248.0,9196.0,-1388.0,-2141.0,869.0,207.0,1.0
-5968.0,-2204.0,16928.0,-2110.0,-1433.0,382.0,205.0,1.0
2536.0,-1168.0,7408.0,-2073.0,-2319.0,-205.0,194.0,1.0
7352.0,-2972.0,7316.0,-1412.0,-2093.0,-565.0,195.0,1.0
11932.0,56.0,18928.0,-924.0,-703.0,-861.0,200.0,1.0
1968.0,-1160.0,29424.0,-322.0,216.0,-858.0,194.0,1.0
5880.0,-448.0,20088.0,171.0,1961.0,-585.0,205.0,1.0
-7676.0,1184.0,19416.0,-202.0,1067.0,-21.0,210.0,1.0
-8564.0,3052.0,8612.0,-719.0,545.0,776.0,189.0,1.0
-15624.0,2444.0,14644.0,-1346.0,-2134.0,846.0,199.0,1.0
-3952.0,-4148.0,17468.0,-2187.0,-1607.0,314.0,209.0,1.0
6736.0,-3144.0,3928.0,-1979.0,-2073.0,-255.0,196.0,1.0
4200.0,-1512.0,15328.0,-1246.0,-2148.0,-765.0,191.0,1.0
1404.0,-956.0,30296.0,-588.0,80.0,-852.0,210.0,1.0
6556.0,-40.0,19000.0,40.0,1634.0,-655.0,206.0,1.0
-5068.0,-2524.0,26320.0,-41.0,1600.0,-130.0,193.0,1.0
-8664.0,1424.0,15720.0,-791.0,326.0,847.0,183.0,1.0
-2856.0,2136.0,3904.0,-1719.0,-2031.0,774.0,192.0,1.0
-4772.0,-4024.0,17712.0,-2208.0,-2568.0,15.0,210.0,1.0
8700.0,-2980.0,5408.0,-1503.0,-1701.0,-410.0,209.0,1.0
9576.0,192.0,23648.0,-871.0,-253.0,-878.0,232.0,1.0
4596.0,-888.0,21536.0,-69.0,1022.0,-747.0,211.0,1.0
-3012.0,-1580.0,25928.0,-24.0,1676.0,-158.0,190.0,1.0
-14848.0,4520.0,9228.0,-800.0,306.0,825.0,183.0,1.0
-4128.0,2356.0,4052.0,-1733.0,-2005.0,758.0,191.0,1.0
-6452.0,-2768.0,17704.0,-2257.0,-2275.0,20.0,214.0,1.0
4696.0,-2456.0,4020.0,-1694.0,-1589.0,-385.0,204.0,1.0
11280.0,-824.0,16912.0,-955.0,-1233.0,-851.0,196.0,1.0
4952.0,304.0,28836.0,-340.0,206.0,-869.0,193.0,1.0
4620.0,-404.0,22724.0,75.0,1911.0,-543.0,204.0,1.0
-6772.0,1288.0,21956.0,-213.0,1015.0,23.0,210.0,1.0
-9048.0,2424.0,9232.0,-695.0,483.0,811.0,189.0,1.0
-15896.0,2852.0,13768.0,-1503.0,-2250.0,839.0,194.0,1.0
-1964.0,-3344.0,16688.0,-2228.0,-2008.0,197.0,233.0,1.0
8400.0,-2940.0,5008.0,-1726.0,-1678.0,-348.0,212.0,1.0
2976.0,-1716.0,18656.0,-1105.0,-1881.0,-812.0,193.0,1.0
1324.0,-1236.0,29456.0,-393.0,164.0,-830.0,195.0,1.0
5992.0,28.0,19068.0,108.0,1793.0,-600.0,213.0,1.0
-4120.0,-1812.0,26288.0,-143.0,1137.0,-50.0,199.0,1.0
-10716.0,5272.0,7200.0,-649.0,510.0,739.0,190.0,1.0
-12712.0,3448.0,12756.0,-1537.0,-2206.0,841.0,194.0,1.0
-1252.0,-752.0,8996.0,-2214.0,-1959.0,263.0,233.0,1.0
5768.0,-2452.0,9748.0,-1877.0,-1910.0,-252.0,198.0,1.0
6008.0,-804.0,20364.0,-1138.0,-1879.0,-789.0,190.0,1.0
11788.0,64.0,19556.0,-518.0,115.0,-894.0,205.0,1.0
1284.0,-1216.0,22656.0,47.0,1466.0,-669.0,211.0,1.0
-3744.0,-1904.0,25240.0,-70.0,1614.0,-127.0,193.0,1.0
-10308.0,1748.0,15256.0,-727.0,485.0,761.0,193.0,1.0
-12760.0,5300.0,7972.0,-1386.0,-2099.0,854.0,196.0,1.0
-5840.0,-2140.0,16912.0,-2229.0,-1817.0,244.0,227.0,1.0
4388.0,-1620.0,5716.0,-1871.0,-1786.0,-297.0,193.0,1.0
9896.0,-1276.0,17792.0,-1189.0,-2151.0,-756.0,191.0,1.0
6920.0,300.0,26364.0,-626.0,-11.0,-863.0,209.0,1.0
3896.0,-356.0,24060.0,-97.0,1148.0,-774.0,213.0,1.0
2448.0,-424.0,21636.0,30.0,1994.0,-245.0,190.0,1.0
-9432.0,2204.0,10520.0,-492.0,356.0,544.0,202.0,1.0
-15560.0,2856.0,12676.0,-1180.0,-1823.0,889.0,201.0,1.0
-3024.0,2084.0,3800.0,-2174.0,-1559.0,387.0,192.0,1.0
7876.0,-3192.0,5020.0,-1921.0,-2076.0,-213.0,191.0,1.0
3184.0,-2008.0,18872.0,-1261.0,-2218.0,-689.0,192.0,1.0
1220.0,-1136.0,28828.0,-520.0,67.0,-866.0,209.0,1.0
5468.0,184.0,19608.0,-11.0,1416.0,-702.0,192.0,1.0
-4728.0,-2360.0,26116.0,13.0,2000.0,-187.0,188.0,1.0
-8572.0,1176.0,19380.0,-562.0,428.0,676.0,199.0,1.0
-9580.0,2544.0,8016.0,-1320.0,-2085.0,869.0,207.0,1.0
-3480.0,-1008.0,13504.0,-2121.0,-1650.0,406.0,210.0,1.0
1420.0,-1844.0,10888.0,-1965.0,-2161.0,-232.0,192.0,1.0
8572.0,-1192.0,19504.0,-1180.0,-1989.0,-772.0,191.0,1.0
6696.0,280.0,27100.0,-453.0,192.0,-848.0,199.0,1.0
4980.0,-848.0,21168.0,64.0,1948.0,-558.0,210.0,1.0
-9204.0,1268.0,17608.0,-251.0,740.0,97.0,220.0,1.0
-13000.0,5308.0,8772.0,-833.0,-155.0,849.0,184.0,1.0
-8476.0,2188.0,6440.0,-1786.0,-1899.0,727.0,193.0,1.0
-4488.0,-904.0,15104.0,-2222.0,-2609.0,-4.0,206.0,1.0
3384.0,-1432.0,16588.0,-1531.0,-1631.0,-436.0,212.0,1.0
12144.0,-664.0,17248.0,-940.0,-532.0,-849.0,226.0,1.0
3132.0,-544.0,29512.0,-172.0,766.0,-796.0,196.0,1.0
-4284.0,-2580.0,25412.0,112.0,2198.0,-265.0,191.0,1.0
-9600.0,1828.0,14664.0,-479.0,368.0,561.0,202.0,1.0
-15456.0,4552.0,9944.0,-1405.0,-2198.0,892.0,201.0,1.0
-4520.0,-4168.0,17996.0,-2274.0,-1889.0,301.0,234.0,1.0
7984.0,-3088.0,6100.0,-1730.0,-1630.0,-358.0,219.0,1.0
4048.0,-1968.0,20796.0,-981.0,-1209.0,-836.0,197.0,1.0
2856.0,-576.0,25064.0,-283.0,242.0,-871.0,190.0,1.0
1352.0,-1328.0,22656.0,171.0,2273.0,-457.0,198.0,1.0
-6596.0,852.0,24912.0,-426.0,329.0,418.0,207.0,1.0
-11872.0,3732.0,9968.0,-1237.0,-1857.0,896.0,201.0,1.0
-3128.0,-372.0,12896.0,-2195.0,-1578.0,428.0,224.0,1.0
2352.0,-1680.0,6388.0,-1855.0,-1859.0,-250.0,199.0,1.0
11708.0,-772.0,17056.0,-1083.0,-1590.0,-809.0,196.0,1.0
2736.0,-544.0,29956.0,-286.0,178.0,-857.0,192.0,1.0
6552.0,-196.0,18588.0,186.0,2279.0,-505.0,195.0,1.0
-10104.0,1724.0,14892.0,-311.0,341.0,241.0,229.0,1.0
-14180.0,3892.0,9616.0,-1048.0,-1205.0,889.0,211.0,1.0
-5864.0,1968.0,4180.0,-2088.0,-1566.0,539.0,202.0,1.0
7984.0,-2928.0,4304.0,-2048.0,-2374.0,-204.0,195.0,1.0
2472.0,-2352.0,19784.0,-1247.0,-2236.0,-697.0,189.0,1.0
13420.0,-508.0,17092.0,-632.0,92.0,-872.0,212.0,1.0
5604.0,-188.0,18204.0,42.0,1582.0,-695.0,201.0,1.0
-5156.0,-2400.0,26876.0,-136.0,1356.0,-105.0,196.0,1.0
-9180.0,1972.0,12528.0,-730.0,378.0,826.0,187.0,1.0
-336.0,716.0,5788.0,-1797.0,-1894.0,756.0,195.0,1.0
-2312.0,-3360.0,16816.0,-2200.0,-2406.0,56.0,217.0,1.0
8540.0,-2956.0,5804.0,-1677.0,-1567.0,-350.0,204.0,1.0
3360.0,-1800.0,21408.0,-962.0,-1283.0,-841.0,208.0,1.0
1940.0,-720.0,26988.0,-256.0,347.0,-827.0,192.0,1.0
4312.0,-284.0,19764.0,226.0,2187.0,-499.0,199.0,1.0
-4708.0,-2432.0,25996.0,-330.0,427.0,179.0,235.0,1.0
-15280.0,3068.0,12340.0,-962.0,-945.0,873.0,196.0,1.0
-2232.0,2132.0,4092.0,-1953.0,-1601.0,673.0,193.0,1.0
-5448.0,-4208.0,17884.0,-2110.0,-2630.0,-67.0,191.0,1.0
5264.0,-1256.0,21396.0,-1368.0,-1962.0,-636.0,192.0,1.0
11784.0,-104.0,19672.0,-707.0,103.0,-898.0,222.0,1.0
1880.0,-572.0,26412.0,28.0,1668.0,-649.0,213.0,1.0
-6736.0,1272.0,22452.0,-196.0,1017.0,6.0,205.0,1.0
-10732.0,4264.0,8784.0,-818.0,28.0,824.0,183.0,1.0
-11828.0,3468.0,11380.0,-1698.0,-2053.0,809.0,194.0,1.0
4172.0,-2840.0,4324.0,-2237.0,-2677.0,9.0,203.0,1.0
3588.0,-2240.0,17948.0,-1443.0,-1859.0,-540.0,198.0,1.0
14576.0,-168.0,15220.0,-710.0,41.0,-866.0,225.0,1.0
976.0,-372.0,28888.0,25.0,1570.0,-699.0,213.0,1.0
-6456.0,772.0,21124.0,-242.0,1106.0,24.0,182.0,1.0
-10596.0,5144.0,7704.0,-848.0,-220.0,864.0,184.0,1.0
-9368.0,2344.0,6544.0,-1921.0,-1684.0,690.0,193.0,1.0
8172.0,-2984.0,4420.0,-2178.0,-2575.0,-140.0,195.0,1.0
3500.0,-1644.0,22368.0,-1356.0,-2179.0,-644.0,193.0,1.0
11872.0,-388.0,19168.0,-459.0,153.0,-862.0,199.0,1.0
-1636.0,-1168.0,25716.0,113.0,2108.0,-572.0,199.0,1.0
-7860.0,872.0,19944.0,-330.0,320.0,246.0,229.0,1.0
-11204.0,5236.0,7868.0,-1089.0,-1452.0,882.0,205.0,1.0
-5624.0,-2824.0,16672.0,-2135.0,-1468.0,501.0,198.0,1.0
6032.0,-3176.0,3840.0,-1998.0,-2176.0,-214.0,191.0,1.0
3224.0,-1460.0,16576.0,-1187.0,-1999.0,-761.0,193.0,1.0
2016.0,-1280.0,28660.0,-484.0,85.0,-905.0,208.0,1.0
5360.0,48.0,19448.0,135.0,1801.0,-589.0,219.0,1.0
-4568.0,-2732.0,26120.0,-170.0,1097.0,34.0,211.0,1.0
-10208.0,1620.0,16704.0,-709.0,102.0,799.0,185.0,1.0
-2780.0,2344.0,4500.0,-1863.0,-1854.0,711.0,192.0,1.0
-4344.0,-4100.0,17560.0,-2240.0,-2689.0,45.0,206.0,1.0
8716.0,-3080.0,6316.0,-1391.0,-1873.0,-540.0,195.0,1.0
7024.0,508.0,26724.0,-678.0,68.0,-856.0,216.0,1.0
6136.0,-512.0,19692.0,99.0,1640.0,-664.0,212.0,1.0
-3732.0,-2668.0,25296.0,-246.0,822.0,67.0,210.0,1.0
-13716.0,2320.0,12096.0,-873.0,-502.0,811.0,189.0,1.0
-268.0,896.0,5164.0,-1937.0,-1577.0,656.0,197.0,1.0
-1840.0,-2536.0,16044.0,-2196.0,-2701.0,-79.0,198.0,1.0
7408.0,-2736.0,7368.0,-1378.0,-2115.0,-616.0,189.0,1.0
8152.0,396.0,25032.0,-749.0,-16.0,-904.0,229.0,1.0
4656.0,-920.0,22020.0,-100.0,1127.0,-738.0,211.0,1.0
100.0,-732.0,24120.0,14.0,1970.0,-145.0,194.0,1.0
-5604.0,336.0,24944.0,-463.0,359.0,465.0,205.0,1.0
-13844.0,3652.0,14432.0,-1191.0,-1763.0,845.0,198.0,1.0
-1520.0,-176.0,8208.0,-2163.0,-1668.0,397.0,197.0,1.0
-1612.0,-2692.0,15344.0,-1945.0,-2162.0,-219.0,190.0,1.0
7296.0,-1008.0,20428.0,-1158.0,-1948.0,-754.0,198.0,1.0
6656.0,480.0,26768.0,-264.0,212.0,-825.0,195.0,1.0
6536.0,-740.0,19004.0,145.0,2396.0,-530.0,197.0,1.0
-9192.0,1872.0,13500.0,-458.0,395.0,432.0,206.0,1.0
-15680.0,3100.0,12852.0,-1375.0,-2126.0,876.0,203.0,1.0
-592.0,-1464.0,12212.0,-2238.0,-2192.0,169.0,229.0,1.0
4868.0,-1736.0,10768.0,-1610.0,-1616.0,-359.0,214.0,1.0
10692.0,-1388.0,18096.0,-897.0,-489.0,-895.0,231.0,1.0
5368.0,-60.0,18780.0,-58.0,1230.0,-729.0,219.0,1.0
-5248.0,-624.0,26072.0,-142.0,1369.0,-91.0,202.0,1.0
-11116.0,3460.0,9644.0,-800.0,-247.0,817.0,186.0,1.0
-10836.0,3424.0,7056.0,-1987.0,-1673.0,676.0,199.0,1.0
8928.0,-3132.0,5060.0,-2070.0,-2382.0,-177.0,190.0,1.0
4856.0,-860.0,22564.0,-1108.0,-1789.0,-808.0,200.0,1.0
5676.0,16.0,28460.0,-176.0,421.0,-830.0,190.0,1.0
-4880.0,-2744.0,26936.0,168.0,2468.0,-374.0,190.0,1.0
-9152.0,1816.0,10940.0,-604.0,497.0,697.0,191.0,1.0
-14480.0,3332.0,14344.0,-1622.0,-2207.0,838.0,192.0,1.0
-744.0,-2132.0,9608.0,-2220.0,-2868.0,7.0,203.0,1.0
3960.0,-1276.0,13144.0,-1475.0,-1859.0,-488.0,202.0,1.0
11784.0,-1228.0,17768.0,-805.0,-117.0,-886.0,233.0,1.0
4100.0,-348.0,20072.0,-58.0,1330.0,-741.0,194.0,1.0
-4528.0,-1020.0,25756.0,-125.0,1507.0,-103.0,178.0,1.0
-10020.0,2284.0,9908.0,-860.0,-347.0,864.0,191.0,1.0
-3160.0,-144.0,12696.0,-1994.0,-1587.0,623.0,196.0,1.0
1436.0,-2528.0,6448.0,-2153.0,-2742.0,-84.0,194.0,1.0
3512.0,-1592.0,15856.0,-1300.0,-2148.0,-692.0,193.0,1.0
1096.0,-992.0,29024.0,-499.0,161.0,-861.0,207.0,1.0
2688.0,-756.0,21232.0,178.0,2196.0,-591.0,204.0,1.0
-5360.0,564.0,24272.0,-329.0,441.0,204.0,227.0,1.0
-10824.0,3944.0,8868.0,-1029.0,-1217.0,878.0,218.0,1.0
-4172.0,-1944.0,15064.0,-2178.0,-1435.0,498.0,206.0,1.0
7524.0,-3024.0,4568.0,-1793.0,-1720.0,-259.0,212.0,1.0
3792.0,-1872.0,21392.0,-979.0,-1213.0,-848.0,205.0,1.0
5032.0,-828.0,22056.0,-112.0,493.0,-802.0,196.0,1.0
-2712.0,-1884.0,26016.0,-3.0,2074.0,-232.0,178.0,1.0
-8220.0,1496.0,14668.0,-671.0,246.0,756.0,189.0,1.0
-1332.0,608.0,7128.0,-1782.0,-2019.0,689.0,193.0,1.0
-2024.0,-1308.0,10976.0,-2184.0,-2813.0,-86.0,195.0,1.0
4332.0,-1984.0,15220.0,-1284.0,-2235.0,-668.0,191.0,1.0
1900.0,-444.0,27168.0,-233.0,228.0,-876.0,185.0,1.0
-2892.0,-1592.0,27108.0,101.0,2489.0,-397.0,192.0,1.0
-9704.0,1724.0,13324.0,-617.0,178.0,744.0,182.0,1.0
-868.0,468.0,9572.0,-2010.0,-1683.0,681.0,192.0,1.0
5316.0,-3496.0,5840.0,-2109.0,-2649.0,-156.0,190.0,1.0
2028.0,-1544.0,24084.0,-1193.0,-2138.0,-779.0,195.0,1.0
7648.0,-760.0,18184.0,-150.0,481.0,-854.0,196.0,1.0
-5120.0,-2692.0,27128.0,-36.0,2027.0,-171.0,185.0,1.0
-11480.0,2744.0,10448.0,-755.0,-137.0,846.0,183.0,1.0
-11440.0,2712.0,6812.0,-2109.0,-1378.0,591.0,198.0,1.0
9908.0,-2984.0,3904.0,-1826.0,-1639.0,-262.0,207.0,1.0
11780.0,-1568.0,17448.0,-816.0,-505.0,-880.0,220.0,1.0
-172.0,-764.0,31388.0,21.0,1452.0,-735.0,207.0,1.0
-8132.0,752.0,18056.0,-292.0,754.0,132.0,233.0,1.0
-14872.0,2512.0,11852.0,-1142.0,-1596.0,864.0,194.0,1.0
-704.0,112.0,7432.0,-2231.0,-1894.0,313.0,227.0,1.0
3652.0,-2092.0,16504.0,-1649.0,-1579.0,-379.0,206.0,1.0
14204.0,-388.0,16184.0,-801.0,-323.0,-878.0,233.0,1.0
2900.0,-488.0,25292.0,27.0,1636.0,-701.0,209.0,1.0
-8780.0,964.0,16464.0,-286.0,731.0,76.0,229.0,1.0
-14844.0,2708.0,11232.0,-913.0,-795.0,854.0,195.0,1.0
-1136.0,1036.0,6784.0,-2165.0,-1469.0,504.0,206.0,1.0
-440.0,-1532.0,13092.0,-1910.0,-1914.0,-276.0,196.0,1.0
11288.0,-924.0,16516.0,-984.0,-1308.0,-811.0,203.0,1.0
1556.0,-760.0,29344.0,-264.0,308.0,-825.0,192.0,1.0
4028.0,-524.0,20236.0,130.0,2183.0,-333.0,194.0,1.0
-9008.0,3492.0,9364.0,-606.0,568.0,612.0,200.0,1.0
-11968.0,3760.0,11360.0,-1550.0,-2179.0,860.0,197.0,1.0
-2736.0,-808.0,12044.0,-2232.0,-2172.0,145.0,221.0,1.0
3560.0,-1248.0,15536.0,-1551.0,-1592.0,-420.0,207.0,1.0
12864.0,-744.0,17028.0,-912.0,-546.0,-871.0,219.0,1.0
2008.0,-1196.0,30336.0,-156.0,752.0,-793.0,190.0,1.0
-4036.0,-1444.0,25188.0,55.0,1983.0,-149.0,190.0,1.0
-8668.0,2012.0,10188.0,-676.0,501.0,769.0,192.0,1.0
-15320.0,3172.0,15232.0,-1639.0,-2225.0,822.0,186.0,1.0
1176.0,-1392.0,9408.0,-2198.0,-2494.0,36.0,203.0,1.0
4964.0,-1864.0,10548.0,-1541.0,-1634.0,-466.0,209.0,1.0
7928.0,-1084.0,19652.0,-848.0,-296.0,-921.0,228.0,1.0
5688.0,-420.0,19892.0,-95.0,754.0,-776.0,197.0,1.0
-2744.0,-1892.0,25444.0,79.0,2207.0,-221.0,193.0,1.0
-7992.0,996.0,19000.0,-522.0,498.0,557.0,201.0,1.0
-11160.0,5404.0,8016.0,-1309.0,-2089.0,835.0,203.0,1.0
-6600.0,-2508.0,17188.0,-2219.0,-1778.0,348.0,226.0,1.0
6204.0,-3064.0,3612.0,-1734.0,-1644.0,-303.0,209.0,1.0
12720.0,-260.0,17940.0,-1005.0,-1265.0,-883.0,202.0,1.0
1080.0,-620.0,28812.0,-177.0,322.0,-852.0,192.0,1.0
3840.0,-480.0,19924.0,211.0,2418.0,-436.0,181.0,1.0
-4408.0,-1676.0,25592.0,-389.0,237.0,354.0,217.0,1.0
-14300.0,3152.0,14168.0,-1281.0,-1790.0,882.0,196.0,1.0
-624.0,460.0,6440.0,-2130.0,-1559.0,440.0,197.0,1.0
-1300.0,-3124.0,15648.0,-1992.0,-2239.0,-233.0,188.0,1.0
7324.0,-932.0,20264.0,-1147.0,-1863.0,-761.0,195.0,1.0
8012.0,652.0,25304.0,-387.0,221.0,-892.0,197.0,1.0
4888.0,-992.0,20816.0,152.0,2204.0,-542.0,198.0,1.0
-8596.0,1424.0,16296.0,-335.0,382.0,239.0,231.0,1.0
-14516.0,4892.0,9312.0,-1135.0,-1531.0,909.0,210.0,1.0
-4860.0,1936.0,3480.0,-2143.0,-1574.0,455.0,211.0,1.0
8344.0,-3032.0,6504.0,-1998.0,-2188.0,-257.0,189.0,1.0
5280.0,-1192.0,21004.0,-1160.0,-1844.0,-768.0,200.0,1.0
11252.0,20.0,20108.0,-355.0,226.0,-855.0,198.0,1.0
-592.0,-1148.0,24188.0,206.0,2119.0,-506.0,195.0,1.0
-6848.0,1248.0,23040.0,-378.0,345.0,285.0,232.0,1.0
-9988.0,3408.0,9384.0,-1018.0,-1062.0,901.0,201.0,1.0
-3468.0,-848.0,12756.0,-2032.0,-1510.0,610.0,201.0,1.0
604.0,-1572.0,10308.0,-2155.0,-2538.0,-190.0,196.0,1.0
7040.0,-2624.0,7728.0,-1362.0,-1900.0,-604.0,194.0,1.0
5200.0,444.0,28304.0,-723.0,-28.0,-891.0,224.0,1.0
4796.0,-944.0,20796.0,-73.0,1051.0,-742.0,214.0,1.0
-1704.0,-936.0,25476.0,-28.0,1928.0,-211.0,192.0,1.0
-6836.0,1180.0,22644.0,-568.0,539.0,623.0,199.0,1.0
-12468.0,3652.0,8324.0,-1403.0,-2056.0,623.0,205.0,1.0
-2608.0,-672.0,11784.0,-2149.0,-1509.0,455.0,193.0,1.0
-380.0,-1576.0,10704.0,-1980.0,-2098.0,-239.0,192.0,1.0
9768.0,-1256.0,19164.0,-1156.0,-1950.0,-767.0,194.0,1.0
5028.0,392.0,28468.0,-394.0,121.0,-880.0,202.0,1.0
6888.0,-652.0,18032.0,152.0,2276.0,-535.0,190.0,1.0
-9012.0,1916.0,14300.0,-296.0,400.0,219.0,232.0,1.0
-15292.0,3484.0,11292.0,-1015.0,-1131.0,900.0,213.0,1.0
-1552.0,2204.0,5164.0,-2157.0,-1455.0,437.0,182.0,1.0
8524.0,-2980.0,5692.0,-1877.0,-1809.0,-269.0,193.0,1.0
6060.0,-672.0,21268.0,-1109.0,-1883.0,-792.0,200.0,1.0
8988.0,392.0,23996.0,-380.0,227.0,-884.0,198.0,1.0
-2716.0,-1140.0,26164.0,102.0,2173.0,-518.0,190.0,1.0
-7272.0,1328.0,21476.0,-330.0,355.0,277.0,237.0,1.0
-9608.0,3864.0,8760.0,-974.0,-716.0,907.0,196.0,1.0
-13536.0,3432.0,14000.0,-1887.0,-1707.0,677.0,191.0,1.0
-1128.0,-1380.0,10940.0,-2149.0,-2776.0,-134.0,200.0,1.0
6316.0,-2692.0,8928.0,-1380.0,-2014.0,-623.0,190.0,1.0
6412.0,632.0,26960.0,-737.0,-10.0,-897.0,234.0,1.0
4836.0,-1012.0,20816.0,-137.0,725.0,-772.0,198.0,1.0
-2516.0,-1176.0,25748.0,-17.0,1747.0,-139.0,190.0,1.0
-8012.0,1240.0,18928.0,-690.0,461.0,766.0,192.0,1.0
-5372.0,2092.0,4224.0,-1637.0,-2062.0,825.0,191.0,1.0
-5332.0,-4036.0,17204.0,-2207.0,-2530.0,90.0,211.0,1.0
8056.0,-3272.0,4872.0,-1499.0,-1595.0,-443.0,209.0,1.0
11500.0,-144.0,19676.0,-906.0,-575.0,-853.0,228.0,1.0
2060.0,-452.0,25116.0,-104.0,872.0,-784.0,201.0,1.0
388.0,-556.0,23540.0,43.0,1819.0,-127.0,190.0,1.0
-7664.0,1120.0,21196.0,-609.0,467.0,685.0,190.0,1.0
-6316.0,2028.0,4308.0,-1772.0,-2050.0,782.0,191.0,1.0
-5832.0,-4220.0,18016.0,-2237.0,-2577.0,69.0,203.0,1.0
9764.0,-2980.0,4988.0,-1435.0,-1789.0,-577.0,191.0,1.0
6896.0,540.0,26288.0,-660.0,79.0,-883.0,215.0,1.0
7600.0,-468.0,17384.0,70.0,1828.0,-609.0,214.0,1.0
-4268.0,-2696.0,25880.0,-253.0,865.0,85.0,233.0,1.0
-10148.0,2068.0,10952.0,-990.0,-830.0,919.0,201.0,1.0
-1812.0,-28.0,11196.0,-2188.0,-1323.0,491.0,196.0,1.0
6448.0,-3384.0,4168.0,-1804.0,-1582.0,-279.0,196.0,1.0
3676.0,-2204.0,20624.0,-999.0,-1347.0,-880.0,193.0,1.0
3504.0,-652.0,23364.0,-192.0,496.0,-840.0,192.0,1.0
-1368.0,-656.0,25156.0,141.0,2231.0,-283.0,190.0,1.0
-8148.0,1324.0,18744.0,-590.0,412.0,664.0,189.0,1.0
-3368.0,2148.0,3896.0,-1740.0,-2053.0,797.0,193.0,1.0
-4804.0,-4288.0,18188.0,-2224.0,-2603.0,46.0,204.0,1.0
9444.0,-3120.0,5528.0,-1418.0,-1770.0,-506.0,197.0,1.0
4740.0,256.0,29048.0,-707.0,30.0,-865.0,222.0,1.0
6864.0,-668.0,17932.0,32.0,1511.0,-676.0,194.0,1.0
-4968.0,-2832.0,26640.0,-86.0,1419.0,-65.0,183.0,1.0
-9672.0,2064.0,12976.0,-809.0,-10.0,863.0,187.0,1.0
-2024.0,-768.0,10460.0,-1988.0,-1530.0,609.0,190.0,1.0
3108.0,-2516.0,5168.0,-2124.0,-2487.0,-197.0,185.0,1.0
3552.0,-2500.0,19804.0,-1103.0,-1828.0,-798.0,192.0,1.0
4896.0,-436.0,22552.0,-260.0,444.0,-850.0,186.0,1.0
-1940.0,-1192.0,25352.0,190.0,2288.0,-349.0,184.0,1.0
-8088.0,1340.0,18920.0,-597.0,472.0,690.0,197.0,1.0
-4272.0,2104.0,3752.0,-1565.0,-2155.0,854.0,182.0,1.0
-5244.0,-4516.0,18120.0,-2230.0,-2481.0,86.0,216.0,1.0
10256.0,-2896.0,4472.0,-1483.0,-1666.0,-502.0,204.0,1.0
6968.0,684.0,26260.0,-732.0,-69.0,-867.0,229.0,1.0
7248.0,-656.0,18020.0,-47.0,1019.0,-761.0,221.0,1.0
-4808.0,-2480.0,26632.0,-67.0,1613.0,-96.0,194.0,1.0
-10024.0,1792.0,15080.0,-738.0,224.0,813.0,180.0,1.0
-488.0,-500.0,6612.0,-1946.0,-1745.0,651.0,190.0,1.0
-1960.0,-1452.0,11640.0,-2096.0,-2863.0,-77.0,193.0,1.0
5456.0,-1300.0,12528.0,-1261.0,-2179.0,-750.0,191.0,1.0
764.0,-384.0,29188.0,-350.0,186.0,-884.0,196.0,1.0
-1088.0,-964.0,25112.0,187.0,2428.0,-429.0,185.0,1.0
-8128.0,1168.0,18432.0,-524.0,152.0,549.0,197.0,1.0
-14384.0,3920.0,9956.0,-1582.0,-2314.0,859.0,187.0,1.0
-5660.0,-1352.0,16876.0,-2223.0,-3047.0,-33.0,200.0,1.0
5944.0,-1692.0,9648.0,-1354.0,-2019.0,-600.0,190.0,1.0
-532.0,-928.0,32148.0,-540.0,130.0,-862.0,205.0,1.0
3248.0,-420.0,20492.0,103.0,2222.0,-586.0,201.0,1.0
-6560.0,1008.0,23180.0,-305.0,318.0,267.0,225.0,1.0
-11692.0,5224.0,8652.0,-1148.0,-1526.0,895.0,203.0,1.0
-5320.0,-4080.0,17020.0,-2237.0,-1975.0,287.0,230.0,1.0
11408.0,-2848.0,3096.0,-1601.0,-1363.0,-407.0,196.0,1.0
7952.0,596.0,24868.0,-825.0,-417.0,-880.0,226.0,1.0
6556.0,-612.0,18940.0,-90.0,1007.0,-794.0,200.0,1.0
-4252.0,-2240.0,26676.0,-43.0,1797.0,-181.0,187.0,1.0
-9008.0,1676.0,15688.0,-691.0,329.0,795.0,185.0,1.0
-1392.0,1908.0,5384.0,-1818.0,-1950.0,718.0,188.0,1.0
-5132.0,-2960.0,18388.0,-2198.0,-2796.0,16.0,202.0,1.0
8732.0,-3224.0,6120.0,-1396.0,-1799.0,-532.0,196.0,1.0
6592.0,744.0,26788.0,-775.0,-23.0,-870.0,233.0,1.0
6556.0,-860.0,19208.0,-71.0,1136.0,-767.0,208.0,1.0
-2748.0,-1068.0,26276.0,17.0,1822.0,-103.0,184.0,1.0
-7412.0,1184.0,19184.0,-644.0,436.0,738.0,190.0,1.0
-8212.0,1768.0,5572.0,-1494.0,-2177.0,828.0,191.0,1.0
-3728.0,-680.0,13840.0,-2182.0,-1846.0,289.0,234.0,1.0
-960.0,-1656.0,10440.0,-1830.0,-1578.0,-302.0,194.0,1.0
7964.0,-1008.0,19392.0,-1130.0,-1808.0,-809.0,192.0,1.0
8728.0,596.0,24212.0,-462.0,154.0,-876.0,202.0,1.0
2108.0,-576.0,24472.0,112.0,1985.0,-574.0,210.0,1.0
-7532.0,1392.0,22008.0,-191.0,939.0,57.0,192.0,1.0
-10308.0,3888.0,9260.0,-800.0,198.0,868.0,188.0,1.0
-11804.0,4076.0,11680.0,-1753.0,-1996.0,769.0,193.0,1.0
604.0,-2580.0,7952.0,-2135.0,-2971.0,-25.0,205.0,1.0
5188.0,-1028.0,12128.0,-1539.0,-1674.0,-506.0,210.0,1.0
12072.0,-1152.0,16704.0,-864.0,-257.0,-907.0,235.0,1.0
6552.0,92.0,18168.0,-58.0,1045.0,-742.0,206.0,1.0
-4008.0,-2172.0,24924.0,120.0,2156.0,-189.0,193.0,1.0
-11056.0,1508.0,17764.0,-634.0,340.0,711.0,195.0,1.0
-1756.0,1872.0,4920.0,-1720.0,-2220.0,810.0,187.0,1.0
-5620.0,-4556.0,18624.0,-2222.0,-2123.0,198.0,226.0,1.0
9180.0,-2992.0,4672.0,-1553.0,-1377.0,-422.0,198.0,1.0
12712.0,-304.0,17584.0,-959.0,-1198.0,-850.0,205.0,1.0
-92.0,-600.0,30164.0,-267.0,186.0,-839.0,193.0,1.0
5592.0,-84.0,18480.0,171.0,2229.0,-508.0,197.0,1.0
-6092.0,-2504.0,27660.0,-272.0,547.0,167.0,236.0,1.0
-13880.0,2760.0,12008.0,-1006.0,-810.0,855.0,195.0,1.0
-2168.0,1740.0,4732.0,-2054.0,-1561.0,580.0,196.0,1.0
-4344.0,-4664.0,17508.0,-2097.0,-2471.0,-188.0,195.0,1.0
4952.0,-596.0,22212.0,-1288.0,-2125.0,-722.0,196.0,1.0
11756.0,84.0,19424.0,-610.0,136.0,-875.0,212.0,1.0
724.0,-68.0,27796.0,34.0,1567.0,-666.0,198.0,1.0
-9668.0,2956.0,9764.0,-573.0,313.0,657.0,195.0,1.0
-13764.0,4560.0,13748.0,-1475.0,-2189.0,862.0,198.0,1.0
-1984.0,-908.0,9828.0,-2181.0,-2274.0,144.0,223.0,1.0
5584.0,-1204.0,10968.0,-1672.0,-1412.0,-373.0,224.0,1.0
9560.0,-1204.0,19256.0,-988.0,-1026.0,-874.0,208.0,1.0
